Folder: torchdisorder/data/xrd_measurements/GeO2 (part 2)

File: T_of_r.csv
,r,T
0,1e-05,0.0
4,0.04,0.0
8,0.08,0.0
12,0.12,0.0
16,0.16,0.0
20,0.2,0.0
24,0.24,0.0
28,0.28,0.0
32,0.32,0.0
36,0.36,0.0
40,0.4,0.0
44,0.44,0.0
48,0.48,0.0
52,0.52,0.0
56,0.56,0.0
60,0.6,0.0
64,0.64,0.0
68,0.68,0.0
72,0.72,0.0
76,0.76,0.0
80,0.8,0.0
84,0.84,0.0
88,0.88,0.0
92,0.92,0.0
96,0.96,0.0
100,1.0,0.0
104,1.04,0.0
108,1.08,0.0
112,1.12,0.0
116,1.16,0.0
120,1.2,0.0
124,1.24,0.0
128,1.28,0.0
132,1.32,0.0
136,1.36,0.0
140,1.4,0.0
144,1.44,0.0
148,1.48,0.0
152,1.52,0.0426511
156,1.56,0.0886863
160,1.6,0.24812
164,1.64,1.00302
168,1.68,2.60458
172,1.72,4.16576
176,1.76,4.28001
180,1.8,2.79959
184,1.84,1.06902
188,1.88,0.200888
192,1.92,0.0640219
196,1.96,0.0782986
200,2.0,0.0497457
204,2.04,0.0255791
208,2.08,0.00624835
212,2.12,-0.0103912
216,2.16,-0.00359261
220,2.2,0.0207542
224,2.24,0.0468248
228,2.28,0.0577102
232,2.32,0.0356124
236,2.36,-0.00103879
240,2.4,-0.0188867
244,2.44,-0.0238489
248,2.48,-0.0247254
252,2.52,0.0045622
256,2.56,0.0755
260,2.6,0.177677
264,2.64,0.336717
268,2.68,0.590436
272,2.72,0.912791
276,2.76,1.22512
280,2.8,1.45314
284,2.84,1.54178
288,2.88,1.47117
292,2.92,1.28933
296,2.96,1.09225
300,3.0,0.961474
304,3.04,0.93271
308,3.08,0.99679
312,3.12,1.10441
316,3.16,1.19028
320,3.2,1.21052
324,3.24,1.15483
328,3.28,1.04098
332,3.32,0.913824
336,3.36,0.82367
340,3.4,0.785957
344,3.44,0.780352
348,3.48,0.78911
352,3.52,0.809855
356,3.56,0.839041
360,3.6,0.870509
364,3.64,0.902674
368,3.68,0.933219
372,3.72,0.960023
376,3.76,0.989388
380,3.8,1.02522
384,3.84,1.05421
388,3.88,1.06093
392,3.92,1.05253
396,3.96,1.05214
400,4.0,1.07261
404,4.04,1.11057
408,4.08,1.16157
412,4.12,1.22497
416,4.16,1.29568
420,4.2,1.36799
424,4.24,1.44746
428,4.28,1.54312
432,4.32,1.64856
436,4.36,1.74338
440,4.4,1.80961
444,4.44,1.83588
448,4.48,1.81245
452,4.52,1.73614
456,4.56,1.621
460,4.6,1.49661
464,4.64,1.39305
468,4.68,1.32818
472,4.72,1.3065
476,4.76,1.32193
480,4.8,1.3599
484,4.84,1.40518
488,4.88,1.45241
492,4.92,1.50448
496,4.96,1.56064
500,5.0,1.61297
504,5.04,1.65509
508,5.08,1.68884
512,5.12,1.72021
516,5.16,1.75145
520,5.2,1.7802
524,5.24,1.80518
528,5.28,1.82804
532,5.32,1.84923
536,5.36,1.86654
540,5.4,1.87788
544,5.44,1.88156
548,5.48,1.87437
552,5.52,1.85388
556,5.56,1.82363
560,5.6,1.79403
564,5.64,1.77525
568,5.68,1.76839
572,5.72,1.7655
576,5.76,1.75928
580,5.8,1.75088
584,5.84,1.74784
588,5.88,1.75661
592,5.92,1.77793
596,5.96,1.80703
600,6.0,1.8365
604,6.04,1.85979
608,6.08,1.87421
612,6.12,1.88214
616,6.16,1.88893
620,6.2,1.89871
624,6.24,1.91165
628,6.28,1.92477
632,6.32,1.93544
636,6.36,1.94364
640,6.4,1.95076
644,6.44,1.95807
648,6.48,1.96767
652,6.52,1.98237
656,6.56,2.0023
660,6.6,2.02309
664,6.64,2.03838
668,6.68,2.04373
672,6.72,2.04022
676,6.76,2.03499
680,6.8,2.03582
684,6.84,2.04484
688,6.88,2.05897
692,6.92,2.07406
696,6.96,2.08661
700,7.0,2.09448
704,7.04,2.09852
708,7.08,2.102
712,7.12,2.10815
716,7.16,2.11902
720,7.2,2.13513
724,7.24,2.15485
728,7.28,2.17532
732,7.32,2.1951
736,7.36,2.21505
740,7.4,2.23657
744,7.44,2.25997
748,7.48,2.28525
752,7.52,2.31282
756,7.56,2.34265
760,7.6,2.37304
764,7.64,2.40098
768,7.68,2.4236
772,7.72,2.43947
776,7.76,2.44935
780,7.8,2.4557
784,7.84,2.46131
788,7.88,2.46783
792,7.92,2.4751
796,7.96,2.48207
800,8.0,2.48853
804,8.04,2.49496
808,8.08,2.50139
812,8.12,2.50786
816,8.16,2.51534
820,8.2,2.5246
824,8.24,2.53487
828,8.28,2.5448
832,8.32,2.55425
836,8.36,2.56425
840,8.4,2.57619
844,8.44,2.59119
848,8.48,2.6095
852,8.52,2.63011
856,8.56,2.65103
860,8.6,2.67049
864,8.64,2.68833
868,8.68,2.70579
872,8.72,2.72398
876,8.76,2.74299
880,8.8,2.7623
884,8.84,2.78155
888,8.88,2.80058
892,8.92,2.81875
896,8.96,2.83477
900,9.0,2.84771
904,9.04,2.85758
908,9.08,2.86485
912,9.12,2.8702
916,9.16,2.87513
920,9.2,2.88174
924,9.24,2.8915
928,9.28,2.90454
932,9.32,2.91987
936,9.36,2.93572
940,9.4,2.94986
944,9.44,2.96015
948,9.48,2.96554
952,9.52,2.96697
956,9.56,2.96715
960,9.6,2.96925
964,9.64,2.9756
968,9.68,2.98681
972,9.72,3.00192
976,9.76,3.01936
980,9.8,3.03785
984,9.84,3.05635
988,9.88,3.07397
992,9.92,3.09042
996,9.96,3.10593
1000,10.0,3.12054