Folder: torchdisorder/data/xrd_measurements/GeO2

Note: README.md
# torchdisorder

Torch-based modeling for disordered materials using PyTorch autograd to match target RDFs from XRD or neutron diffraction.

## Features

- Differentiable radial distribution function (RDF) loss
- Automatic config management with Hydra
- Experiment tracking with Weights & Biases
- Compatible with CUDA/GPU acceleration

## Usage

Run an experiment:

```bash
python -m torchdisorder.cli
```

Override parameters:

```bash
python -m torchdisorder.cli experiment.n_steps=10000 optimizer.lr=5e-4
```


```
amorphgen/
│
├── src/
│   └── amorphgen/
│       ├── __init__.py
│       ├── cli.py               # hydra entrypoint
│       ├── data/
│       │   ├── target_rdf.py    # loads & interpolates experimental RDF
│       │   └── utils.py
│       ├── model/
│       │   ├── generator.py     # positions -> (torch.tensor) coords
│       │   ├── rdf.py           # differentiable RDF calculator
│       │   └── loss.py
│       ├── engine/
│       │   ├── trainer.py       # main optimisation loop
│       │   └── callbacks.py     # W&B + other hooks
│       └── viz/
│           └── plot_rdf.py
│
├── configs/                     # hydra default config tree
│   ├── config.yaml
│   ├── experiment/
│   ├── optimizer/
│   ├── system/
│   └── wandb/
│
├── tests/
│
├── pyproject.toml               # poetry / setuptools
└── README.md
```

File: F_of_Q copy.csv
,Q,F,dF
0,0.04,-0.404879,1e-07
2,0.12,-0.404517,1e-07
4,0.2,-0.40523,1e-07
6,0.28,-0.405327,0.000757398
8,0.36,-0.40254,0.00102957
10,0.44,-0.395851,0.001358
12,0.52,-0.387066,0.00067699
14,0.6,-0.378699,0.000755646
16,0.68,-0.368932,0.000869164
18,0.76,-0.355431,0.00098054
20,0.84,-0.340118,0.00111679
22,0.92,-0.323551,0.0012069
24,1.0,-0.299441,0.00133342
26,1.08,-0.261662,0.000552841
28,1.16,-0.206792,0.000603791
30,1.24,-0.130975,0.000686019
32,1.32,-0.0302646,0.000788286
34,1.4,0.0735787,0.000941473
36,1.48,0.133459,0.00105916
38,1.56,0.134284,0.00113822
40,1.64,0.0885173,0.00117985
42,1.72,0.0220808,0.000609623
44,1.8,-0.0350833,0.000580655
46,1.88,-0.0774116,0.000561306
48,1.96,-0.109213,0.000550168
50,2.04,-0.131081,0.00054448
52,2.12,-0.143084,0.000545248
54,2.2,-0.147818,0.000549922
56,2.28,-0.147765,0.000565767
58,2.36,-0.143431,0.000575442
60,2.44,-0.135613,0.000593885
62,2.52,-0.126479,0.000610602
64,2.6,-0.119715,0.000622226
66,2.68,-0.121105,0.000631158
68,2.76,-0.130935,0.000637331
70,2.84,-0.142049,0.000639606
72,2.92,-0.15046,0.000645244
74,3.0,-0.156126,0.000552185
76,3.08,-0.158926,0.000559532
78,3.16,-0.158539,0.00056365
80,3.24,-0.155154,0.00057
82,3.32,-0.149299,0.000578868
84,3.4,-0.141025,0.000592995
86,3.48,-0.130093,0.000604336
88,3.56,-0.116328,0.000624453
90,3.64,-0.0996037,0.000641793
92,3.72,-0.0798793,0.000662923
94,3.8,-0.0570635,0.00069155
96,3.88,-0.030468,0.000716814
98,3.96,0.000657464,0.00074846
100,4.04,0.0360369,0.000779283
102,4.12,0.0744939,0.000818311
104,4.2,0.112047,0.000851795
106,4.28,0.144351,0.000888882
108,4.36,0.169821,0.000917328
110,4.44,0.187897,0.000943766
112,4.52,0.198839,0.000964823
114,4.6,0.203455,0.000983219
116,4.68,0.203961,0.000993893
118,4.76,0.202157,0.0010046
120,4.84,0.195968,0.0010169
122,4.92,0.182067,0.00102038
124,5.0,0.156542,0.00101663
126,5.08,0.116729,0.000996989
128,5.16,0.0673492,0.000967172
130,5.24,0.0155205,0.000935435
132,5.32,-0.0316073,0.000908575
134,5.4,-0.0677649,0.000889975
136,5.48,-0.0924897,0.000886989
138,5.56,-0.107705,0.000881935
140,5.64,-0.115805,0.000887731
142,5.72,-0.119265,0.00090141
144,5.8,-0.119285,0.000913482
146,5.88,-0.116438,0.000929497
148,5.96,-0.112354,0.000939244
150,6.04,-0.109274,0.000960372
152,6.12,-0.107498,0.000971118
154,6.2,-0.105696,0.000990979
156,6.28,-0.103356,0.000995502
158,6.36,-0.100928,0.0010208
160,6.44,-0.0982584,0.00101972
162,6.52,-0.0942339,0.00104669
164,6.6,-0.0879815,0.00106186
166,6.68,-0.0793008,0.00107784
168,6.75999,-0.0680575,0.0011003
170,6.83999,-0.0540601,0.00113179
172,6.91999,-0.0372801,0.00116351
174,6.99999,-0.0185475,0.00118414
176,7.07999,0.00100991,0.00121443
178,7.15999,0.019988,0.00125359
180,7.23999,0.0368731,0.00128458
182,7.31999,0.0506132,0.00130716
184,7.39999,0.0605345,0.00133744
186,7.47999,0.0660879,0.00134627
188,7.55999,0.0668815,0.00135843
190,7.63999,0.0631928,0.00136758
192,7.71999,0.0569126,0.00135988
194,7.79999,0.0500402,0.00137557
196,7.87999,0.0439249,0.00137485
198,7.95999,0.0396249,0.00137515
200,8.03999,0.037182,0.00138554
202,8.11999,0.03603,0.00138224
204,8.19999,0.035973,0.00139496
206,8.27999,0.0372795,0.00141129
208,8.35999,0.0397568,0.00142254
210,8.43999,0.0419106,0.00142643
212,8.51999,0.0422833,0.00144271
214,8.59999,0.0410648,0.00144338
216,8.67999,0.039062,0.0014497
218,8.75999,0.0360182,0.00145532
220,8.83999,0.0306528,0.0014606
222,8.91999,0.0224107,0.00145986
224,8.99999,0.0125816,0.00145146
226,9.07999,0.00256034,0.00144947
228,9.15999,-0.00744822,0.00144785
230,9.23999,-0.0177435,0.0014395
232,9.31999,-0.0282096,0.00143947
234,9.39999,-0.0382274,0.00142528
236,9.47999,-0.0471371,0.00142532
238,9.55999,-0.0542405,0.00143544
240,9.63999,-0.0588873,0.00142425
242,9.71999,-0.0612958,0.00143337
244,9.79999,-0.0623577,0.00144267
246,9.87999,-0.0625642,0.00144192
248,9.95999,-0.0613194,0.00146185
250,10.04,-0.0579823,0.0014639
252,10.12,-0.0533717,0.00147933
254,10.2,-0.0492311,0.00149992
256,10.28,-0.0464896,0.00150036
258,10.36,-0.0440886,0.00150867
260,10.44,-0.0407705,0.001533
262,10.52,-0.0364223,0.0015397
264,10.6,-0.0317008,0.00155117
266,10.68,-0.0270324,0.00158203
268,10.76,-0.02212,0.0015794
270,10.84,-0.0165404,0.00160493
272,10.92,-0.0100113,0.00161512
274,11.0,-0.00238219,0.00163591
276,11.08,0.006421,0.00165161
278,11.16,0.0161109,0.00168855
280,11.24,0.0262856,0.00170569
282,11.32,0.0365061,0.00171095
284,11.4,0.0462685,0.00175199
286,11.48,0.0550335,0.00176747
288,11.56,0.06187,0.00177986
290,11.64,0.0655673,0.00180256
292,11.72,0.0653066,0.00180165
294,11.8,0.0621936,0.00181686
296,11.88,0.0579113,0.00181273
298,11.96,0.0533556,0.00181835
300,12.04,0.0477344,0.00180292
302,12.12,0.0400771,0.00180657
304,12.2,0.0305297,0.00179693
306,12.28,0.0204792,0.00180763
308,12.36,0.011289,0.00178716
310,12.44,0.00331468,0.0017923
312,12.52,-0.00372933,0.00177251
314,12.6,-0.0101361,0.0017767
316,12.68,-0.0161828,0.00177864
318,12.76,-0.0221402,0.00177747
320,12.84,-0.0281276,0.00178013
322,12.92,-0.0336472,0.00175511
324,13.0,-0.0380442,0.00176796
326,13.08,-0.0409191,0.00175528
328,13.16,-0.0426277,0.00177635
330,13.24,-0.0436642,0.00179281
332,13.32,-0.044315,0.00178601
334,13.4,-0.0443629,0.00179966
336,13.48,-0.0435167,0.00182127
338,13.56,-0.0416098,0.00181104
340,13.64,-0.0387513,0.00184584
342,13.72,-0.0350867,0.00184799
344,13.8,-0.0307588,0.00188298
346,13.88,-0.0259025,0.00188077
348,13.96,-0.0206521,0.00189535
350,14.04,-0.0152211,0.00192581
352,14.12,-0.0100295,0.0019298
354,14.2,-0.00553,0.00192213
356,14.28,-0.00199858,0.00196763
358,14.36,0.00088899,0.00198814
360,14.44,0.00358399,0.00200021
362,14.52,0.00641899,0.00202664
364,14.6,0.00912382,0.00203146
366,14.68,0.0112375,0.00203681
368,14.76,0.0123802,0.00203694
370,14.84,0.0129012,0.00205508
372,14.92,0.0135338,0.00205966
374,15.0,0.0149836,0.00207704
376,15.08,0.0172929,0.00211256
378,15.16,0.0198666,0.00209654
380,15.24,0.0220864,0.00212066
382,15.32,0.0236275,0.0021208
384,15.4,0.0247476,0.00215878
386,15.48,0.025773,0.00217752
388,15.56,0.0269108,0.0021718
390,15.64,0.0277586,0.00219133
392,15.72,0.0277204,0.00218236
394,15.8,0.026233,0.0022135
396,15.88,0.0233555,0.00220955
398,15.96,0.019699,0.00220128
400,16.04,0.0158938,0.00220971
402,16.12,0.01233,0.00221302
404,16.2,0.00872279,0.0022134
406,16.28,0.00466935,0.00114026
408,16.36,-0.000190151,0.00113482
410,16.44,-0.00565937,0.00113773
412,16.52,-0.0111544,0.00112964
414,16.6,-0.0160834,0.00112592
416,16.68,-0.0200352,0.00112355
418,16.76,-0.0231334,0.0011252
420,16.84,-0.0256009,0.00112377
422,16.92,-0.0276507,0.00112588
424,17.0,-0.0292833,0.00112969
426,17.08,-0.0302891,0.00113151
428,17.16,-0.0304495,0.00113145
430,17.24,-0.0295932,0.0011357
432,17.32,-0.0278463,0.00114061
434,17.4,-0.0254513,0.00114149
436,17.48,-0.0226507,0.00114698
438,17.56,-0.0195951,0.00115874
440,17.64,-0.0161852,0.00116589
442,17.72,-0.0122801,0.00117341
444,17.8,-0.00774246,0.00118081
446,17.88,-0.00264011,0.0011892
448,17.96,0.00265431,0.00120175
450,18.04,0.00774339,0.00121211
452,18.12,0.0122404,0.00121962
454,18.2,0.016005,0.00122603
456,18.28,0.0191431,0.00123613
458,18.36,0.0217712,0.00124495
460,18.44,0.0239986,0.00125109
462,18.52,0.0258146,0.00125774
464,18.6,0.0271119,0.00126029
466,18.68,0.0277805,0.00127081
468,18.76,0.0277194,0.00127065
470,18.8401,0.0269682,0.00127442
472,18.9201,0.0256765,0.00127107
474,19.0001,0.0239968,0.0012763
476,19.0801,0.0220791,0.00127313
478,19.1601,0.0200219,0.00127611
480,19.2401,0.0178754,0.0012795
482,19.3201,0.0156882,0.0012812
484,19.4001,0.0135086,0.0012836
486,19.4801,0.0113747,0.00127977
488,19.5601,0.00931052,0.0012791
490,19.6401,0.00733932,0.00128099
492,19.7201,0.00548417,0.00128176
494,19.8001,0.00372931,0.00128825
496,19.8801,0.00196453,0.00129294
498,19.9601,6.55343e-05,0.0012884

File: F_of_Q.csv
,Q,F,dF
0,0.24,-0.405549,1.00E-07
2,0.32,-0.404379,0.000921227
4,0.4,-0.399657,0.00120653
6,0.48,-0.391518,0.00141865
8,0.56,-0.382846,0.000701654
10,0.64,-0.374202,0.000792214
12,0.72,-0.362595,0.000930153
14,0.8,-0.347815,0.00106529
16,0.88,-0.33231,0.00116949
18,0.96,-0.312904,0.00130178
20,1.04,-0.282494,0.000536866
22,1.12,-0.236562,0.000571229
24,1.2,-0.171805,0.000640184
26,1.28,-0.0836719,0.000731497
28,1.36,0.0242595,0.000878964
30,1.44,0.111379,0.00100823
32,1.52,0.140597,0.00110881
34,1.6,0.116041,0.00116158
36,1.68,0.0558023,0.00118969
38,1.76,-0.00865757,0.000596685
40,1.84,-0.0577895,0.00057385
42,1.92,-0.0945162,0.000555792
44,2,-0.121426,0.000546443
46,2.08,-0.138191,0.000544288
48,2.16,-0.146161,0.000549414
50,2.24,-0.148337,0.000563504
52,2.32,-0.146121,0.000572749
54,2.4,-0.139834,0.000584035
56,2.48,-0.131058,0.00060187
58,2.56,-0.122444,0.00061778
60,2.64,-0.11906,0.000628978
62,2.72,-0.125389,0.000637572
64,2.8,-0.136768,0.000639181
66,2.88,-0.146607,0.000643315
68,2.96,-0.153631,0.000647315
70,3.04,-0.157906,0.000552687
72,3.12,-0.15914,0.000558711
74,3.2,-0.157186,0.000566469
76,3.28,-0.152515,0.000575058
78,3.36,-0.14548,0.000586442
80,3.44,-0.135905,0.000598164
82,3.52,-0.123574,0.000615166
84,3.6,-0.108341,0.000632726
86,3.68,-0.0901165,0.000653887
88,3.76,-0.0688861,0.0006743
90,3.84,-0.0442961,0.000705113
92,3.92,-0.0154772,0.000731643
94,4,0.0178558,0.000766915
96,4.08,0.055072,0.000798727
98,4.16,0.0936901,0.000835552
100,4.24,0.129008,0.000870049
102,4.32,0.157987,0.000901017
104,4.4,0.179782,0.000932661
106,4.48,0.194228,0.0009549
108,4.56,0.201824,0.000976163
110,4.64,0.204058,0.000989556
112,4.72,0.203407,0.00100057
114,4.8,0.199811,0.00101393
116,4.88,0.190215,0.00102027
118,4.96,0.171013,0.00102023
120,5.04,0.138276,0.00100689
122,5.12,0.0927905,0.000984173
124,5.2,0.0412948,0.00095397
126,5.28,-0.00907855,0.000924179
128,5.36,-0.0512297,0.000903703
130,5.44,-0.0814404,0.000890482
132,5.52,-0.101149,0.000887485
134,5.6,-0.112481,0.00088511
136,5.68,-0.117998,0.000895162
138,5.76,-0.119674,0.000904741
140,5.84,-0.118159,0.000924086
142,5.92,-0.114404,0.000934298
144,6,-0.110582,0.000950405
146,6.08,-0.108305,0.000964352
148,6.16,-0.106677,0.000983462
150,6.24,-0.104568,0.000999165
152,6.32,-0.102126,0.00100448
154,6.4,-0.0996879,0.00102214
156,6.48,-0.0964896,0.00103831
158,6.56,-0.091404,0.00105086
160,6.64,-0.083952,0.00107495
162,6.72,-0.0740108,0.00109751
164,6.79999,-0.0614157,0.00111493
166,6.87999,-0.0459825,0.00113859
168,6.95999,-0.0280895,0.00117512
170,7.03999,-0.00879245,0.00120917
172,7.11999,0.0106677,0.00123423
174,7.19999,0.028778,0.00127092
176,7.27999,0.0441792,0.00129106
178,7.35999,0.0560919,0.00131507
180,7.43999,0.0638825,0.00133718
182,7.51999,0.0671028,0.00135116
184,7.59999,0.0654944,0.00136
186,7.67999,0.0602433,0.00136122
188,7.75999,0.0534538,0.00137112
190,7.83999,0.0468159,0.00136385
192,7.91999,0.0415094,0.00136915
194,7.99999,0.0382068,0.00138232
196,8.07999,0.0364771,0.0013791
198,8.15999,0.0358495,0.00139718
200,8.23999,0.0364375,0.00140022
202,8.31999,0.0384518,0.00140876
204,8.39999,0.0409809,0.0014224
206,8.47999,0.0423488,0.00144036
208,8.55999,0.0418195,0.00144485
210,8.63999,0.0401264,0.00146012
212,8.71999,0.0377478,0.00145042
214,8.79999,0.0337075,0.00146667
216,8.87999,0.0268277,0.00146724
218,8.95999,0.0175969,0.00145331
220,9.03999,0.00755053,0.0014517
222,9.11999,-0.00242615,0.00145351
224,9.19999,-0.0125451,0.00143343
226,9.27999,-0.022992,0.00144281
228,9.35999,-0.0333151,0.00143144
230,9.43999,-0.0428639,0.00142578
232,9.51999,-0.0509588,0.0014239
234,9.59999,-0.056894,0.00142521
236,9.67999,-0.0603167,0.00143204
238,9.75999,-0.0619385,0.00142929
240,9.83999,-0.0625943,0.00144972
242,9.91999,-0.0621713,0.00145317
244,9.99999,-0.0599145,0.00146122
246,10.08,-0.0557279,0.00146622
248,10.16,-0.0511336,0.00149158
250,10.24,-0.0477334,0.00149682
252,10.32,-0.0453309,0.00150474
254,10.4,-0.0425949,0.00152277
256,10.48,-0.038685,0.00153876
258,10.56,-0.0340663,0.00154519
260,10.64,-0.0293702,0.00157131
262,10.72,-0.0246336,0.00158153
264,10.8,-0.0194379,0.0016038
266,10.88,-0.0134043,0.00161824
268,10.96,-0.00634334,0.00163117
270,11.04,0.00188349,0.00165664
272,11.12,0.0111802,0.00166419
274,11.2,0.0211629,0.00169704
276,11.28,0.0314212,0.0017138
278,11.36,0.0414765,0.00173253
280,11.44,0.0508183,0.00176624
282,11.52,0.0587681,0.00176788
284,11.6,0.0641871,0.00179948
286,11.68,0.0658989,0.00180246
288,11.76,0.0640012,0.0018149
290,11.84,0.0600948,0.00181423
292,11.92,0.0557035,0.00182113
294,12,0.0507414,0.00180378
296,12.08,0.0442085,0.00181254
298,12.16,0.035457,0.00178967
300,12.24,0.0254766,0.00179456
302,12.32,0.0157175,0.00179585
304,12.4,0.00716709,0.00178997
306,12.48,-0.000305135,0.00177186
308,12.56,-0.00699469,0.00176471
310,12.64,-0.0131876,0.00177845
312,12.72,-0.0191558,0.00176949
314,12.8,-0.0251515,0.00177009
316,12.88,-0.0309868,0.00177371
318,12.96,-0.0360268,0.00176526
320,13.04,-0.0396583,0.0017639
322,13.12,-0.0418882,0.00176341
324,13.2,-0.0431993,0.00177732
326,13.28,-0.0440468,0.00178958
328,13.36,-0.0444325,0.00179529
330,13.44,-0.0440695,0.00180602
332,13.52,-0.0426913,0.00181565
334,13.6,-0.0402904,0.00182782
336,13.68,-0.0370106,0.00183059
338,13.76,-0.0329972,0.00184789
340,13.84,-0.0283883,0.0018748
342,13.92,-0.0233181,0.00187449
344,14,-0.017935,0.00191263
346,14.08,-0.0125671,0.00191352
348,14.16,-0.00766493,0.00192565
350,14.24,-0.00365561,0.00195552
352,14.32,-0.00050252,0.00198645
354,14.4,0.00223236,0.0019966
356,14.48,0.00498897,0.00198967
358,14.56,0.00781648,0.00203602
360,14.64,0.0102834,0.00205755
362,14.72,0.0119313,0.00202196
364,14.8,0.0126728,0.00204905
366,14.88,0.0131575,0.00206896
368,14.96,0.0141221,0.00207362
370,15.04,0.0160664,0.00208386
372,15.12,0.0185855,0.00209915
374,15.2,0.0210587,0.00211178
376,15.28,0.02293,0.00212063
378,15.36,0.0242198,0.00214554
380,15.44,0.0252517,0.00217464
382,15.52,0.026341,0.00215102
384,15.6,0.0274082,0.00218398
386,15.68,0.0278875,0.00218946
388,15.76,0.0271827,0.00221127
390,15.84,0.024931,0.00218901
392,15.92,0.0215852,0.00222645
394,16,0.0177757,0.00221106
396,16.08,0.0140921,0.00223284
398,16.16,0.010557,0.00221601
400,16.24,0.00677703,0.00114241
402,16.32,0.00234985,0.00113656
404,16.4,-0.00288455,0.00113009
406,16.48,-0.00844064,0.00113506
408,16.56,-0.0137266,0.00112849
410,16.64,-0.0181799,0.00112009
412,16.72,-0.0216771,0.00112521
414,16.8,-0.0244321,0.00112216
416,16.88,-0.0266676,0.0011227
418,16.96,-0.0285317,0.00112618
420,17.04,-0.0298782,0.00113181
422,17.12,-0.0304886,0.00113069
424,17.2,-0.0301477,0.00113328
426,17.28,-0.0288159,0.00113582
428,17.36,-0.0267147,0.00114092
430,17.44,-0.0240866,0.00114597
432,17.52,-0.0211584,0.00115494
434,17.6,-0.0179433,0.00115821
436,17.68,-0.0143034,0.00117144
438,17.76,-0.0100977,0.00117434
440,17.84,-0.00524013,0.00118453
442,17.92,7.92821e-06,0.00119476
444,18,0.00524935,0.0012039
446,18.08,0.0100867,0.00121655
448,18.16,0.0142083,0.00122316
450,18.24,0.0176451,0.0012312
452,18.32,0.0205136,0.00123826
454,18.4,0.0229305,0.00125175
456,18.48,0.0249645,0.00125461
458,18.56,0.0265349,0.00125891
460,18.64,0.0275316,0.00126633
462,18.72,0.0278446,0.00127066
464,18.8001,0.0274209,0.00126874
466,18.8801,0.0263804,0.00127098
468,18.9601,0.0248756,0.00127236
470,19.0401,0.0230591,0.00127718
472,19.1201,0.0210647,0.00127159
474,19.2001,0.0189568,0.00127757
476,19.2801,0.0167838,0.00128016
478,19.3601,0.0145945,0.0012803
480,19.4401,0.0124344,0.00128304
482,19.5201,0.0103324,0.00127793
484,19.6001,0.00831185,0.0012818
486,19.6801,0.00639583,0.00128061
488,19.7601,0.00460021,0.00128138
490,19.8401,0.00285593,0.00129141
492,19.9201,0.00103958,0.00128863
493,19.9601,6.55343e-05,0.0012884
,,,
,,,
,,,
,,,
,,,

File: F_of_Q_big.csv
,Q,F,dF
0,0.04,-0.404879,1e-07
5,0.24,-0.405549,1e-07
10,0.44,-0.395851,0.001358
15,0.64,-0.374202,0.000792214
20,0.84,-0.340118,0.00111679
25,1.04,-0.282494,0.000536866
30,1.24,-0.130975,0.000686019
35,1.44,0.111379,0.00100823
40,1.64,0.0885173,0.00117985
45,1.84,-0.0577895,0.00057385
50,2.04,-0.131081,0.00054448
55,2.24,-0.148337,0.000563504
60,2.44,-0.135613,0.000593885
65,2.64,-0.11906,0.000628978
70,2.84,-0.142049,0.000639606
75,3.04,-0.157906,0.000552687
80,3.24,-0.155154,0.00057
85,3.44,-0.135905,0.000598164
90,3.64,-0.0996037,0.000641793
95,3.84,-0.0442961,0.000705113
100,4.04,0.0360369,0.000779283
105,4.24,0.129008,0.000870049
110,4.44,0.187897,0.000943766
115,4.64,0.204058,0.000989556
120,4.84,0.195968,0.0010169
125,5.04,0.138276,0.00100689
130,5.24,0.0155205,0.000935435
135,5.44,-0.0814404,0.000890482
140,5.64,-0.115805,0.000887731
145,5.84,-0.118159,0.000924086
150,6.04,-0.109274,0.000960372
155,6.24,-0.104568,0.000999165
160,6.44,-0.0982584,0.00101972
165,6.64,-0.083952,0.00107495
170,6.83999,-0.0540601,0.00113179
175,7.03999,-0.00879245,0.00120917
180,7.23999,0.0368731,0.00128458
185,7.43999,0.0638825,0.00133718
190,7.63999,0.0631928,0.00136758
195,7.83999,0.0468159,0.00136385
200,8.03999,0.037182,0.00138554
205,8.23999,0.0364375,0.00140022
210,8.43999,0.0419106,0.00142643
215,8.63999,0.0401264,0.00146012
220,8.83999,0.0306528,0.0014606
225,9.03999,0.00755053,0.0014517
230,9.23999,-0.0177435,0.0014395
235,9.43999,-0.0428639,0.00142578
240,9.63999,-0.0588873,0.00142425
245,9.83999,-0.0625943,0.00144972
250,10.04,-0.0579823,0.0014639
255,10.24,-0.0477334,0.00149682
260,10.44,-0.0407705,0.001533
265,10.64,-0.0293702,0.00157131
270,10.84,-0.0165404,0.00160493
275,11.04,0.00188349,0.00165664
280,11.24,0.0262856,0.00170569
285,11.44,0.0508183,0.00176624
290,11.64,0.0655673,0.00180256
295,11.84,0.0600948,0.00181423
300,12.04,0.0477344,0.00180292
305,12.24,0.0254766,0.00179456
310,12.44,0.00331468,0.0017923
315,12.64,-0.0131876,0.00177845
320,12.84,-0.0281276,0.00178013
325,13.04,-0.0396583,0.0017639
330,13.24,-0.0436642,0.00179281
335,13.44,-0.0440695,0.00180602
340,13.64,-0.0387513,0.00184584
345,13.84,-0.0283883,0.0018748
350,14.04,-0.0152211,0.00192581
355,14.24,-0.00365561,0.00195552
360,14.44,0.00358399,0.00200021
365,14.64,0.0102834,0.00205755
370,14.84,0.0129012,0.00205508
375,15.04,0.0160664,0.00208386
380,15.24,0.0220864,0.00212066
385,15.44,0.0252517,0.00217464
390,15.64,0.0277586,0.00219133
395,15.84,0.024931,0.00218901
400,16.04,0.0158938,0.00220971
405,16.24,0.00677703,0.00114241
410,16.44,-0.00565937,0.00113773
415,16.64,-0.0181799,0.00112009
420,16.84,-0.0256009,0.00112377
425,17.04,-0.0298782,0.00113181
430,17.24,-0.0295932,0.0011357
435,17.44,-0.0240866,0.00114597
440,17.64,-0.0161852,0.00116589
445,17.84,-0.00524013,0.00118453
450,18.04,0.00774339,0.00121211
455,18.24,0.0176451,0.0012312
460,18.44,0.0239986,0.00125109
465,18.64,0.0275316,0.00126633
470,18.8401,0.0269682,0.00127442
475,19.0401,0.0230591,0.00127718
480,19.2401,0.0178754,0.0012795
485,19.4401,0.0124344,0.00128304
490,19.6401,0.00733932,0.00128099
495,19.8401,0.00285593,0.00129141
500,20.0401,-0.00209197,0.00128935
505,20.2401,-0.00866525,0.0012924
510,20.4401,-0.0144452,0.00129696
515,20.6401,-0.0171815,0.00130197
520,20.8401,-0.0174018,0.00131661
525,21.0401,-0.0155463,0.00131948
530,21.2401,-0.0114705,0.00134051
535,21.4401,-0.00549799,0.00136141
540,21.6401,0.00160955,0.00138451
545,21.8401,0.00889104,0.00140708
550,22.0401,0.015293,0.00142944
555,22.2401,0.0198738,0.00144299
560,22.4401,0.0218807,0.00145812
565,22.6401,0.0214191,0.00147126
570,22.8401,0.0188803,0.00147768
575,23.0401,0.0144018,0.00148104
580,23.2402,0.00817395,0.00147894
585,23.4402,0.00136697,0.00148326
590,23.6402,-0.00455146,0.00148498
595,23.8402,-0.0090112,0.00148135
600,24.0402,-0.0119019,0.00148713
605,24.2402,-0.0130958,0.00148773
610,24.4402,-0.0124577,0.00150419
615,24.6402,-0.0100978,0.00151877
620,24.8402,-0.00641203,0.00153116
625,25.0402,-0.00183838,0.00154718
630,25.2402,0.00312907,0.00155736
635,25.4402,0.00796266,0.00158253
640,25.6402,0.012002,0.00159869
645,25.8402,0.0145764,0.0016136
650,26.0402,0.0155283,0.00162689
655,26.2402,0.0151191,0.00163692
660,26.4402,0.0135167,0.00164411
665,26.6402,0.0106339,0.0016449
670,26.8402,0.00642076,0.00165889
675,27.0402,0.00158277,0.00166351
680,27.2402,-0.00273792,0.00165358
685,27.4402,-0.00577026,0.00166761
690,27.6403,-0.00764625,0.00168326
695,27.8403,-0.00861342,0.00168527
700,28.0403,-0.0086352,0.00173404
705,28.2403,-0.00744098,0.00175687
710,28.4403,-0.00486838,0.00177331
715,28.6403,-0.00137381,0.00178938
720,28.8403,0.00237983,0.00181528
725,29.0403,0.00583818,0.00183175
730,29.2403,0.0087217,0.00184644
735,29.4403,0.0107939,0.00187565
740,29.6403,0.0118392,0.00187867
745,29.8403,0.0116744,0.00189777
750,30.0403,0.0101294,0.00190142
755,30.2403,0.00739085,0.00190911
760,30.4403,0.00407961,0.00190879
765,30.6403,0.000835799,0.00191755
770,30.8403,-0.00193857,0.00192918
775,31.0403,-0.00412672,0.00191815
780,31.2403,-0.00562889,0.00193411
785,31.4403,-0.00635577,0.00194725
790,31.6403,-0.00623361,0.00195146
795,31.8403,-0.00519028,0.00197095
800,32.0404,-0.00326119,0.00197625
805,32.2404,-0.000744372,0.00200617
810,32.4404,0.00202272,0.00201441
815,32.6404,0.00470591,0.00202483
820,32.8404,0.0069892,0.00204635
825,33.0404,0.00856292,0.00205196
830,33.2404,0.00912944,0.0020754
835,33.4404,0.00866276,0.00208616
840,33.6404,0.00740542,0.00208797
845,33.8404,0.00561141,0.00209796
850,34.0404,0.00352192,0.0020945
855,34.2404,0.00132849,0.00210863
860,34.4404,-0.000789472,0.00210602
865,34.6404,-0.00265277,0.00211389
870,34.8404,-0.00409049,0.0021177
875,35.0404,-0.00494263,0.00211393
880,35.2404,-0.00504989,0.00214128
885,35.4404,-0.00427637,0.00214672
890,35.6404,-0.00276423,0.00217429
895,35.8404,-0.000838151,0.00217713
900,36.0404,0.00117399,0.00220366
905,36.2404,0.00296338,0.00220753
910,36.4405,0.00436505,0.00222143
915,36.6405,0.00527965,0.00233394
920,36.8405,0.00560816,0.00234385
925,37.0405,0.00527238,0.00248709
930,37.2405,0.00435339,0.00251033
935,37.4405,0.00300595,0.00250553
940,37.6405,0.00138518,0.00251878
945,37.8405,-0.00035204,0.00252894
950,38.0405,-0.00202658,0.0025372
955,38.2405,-0.00344379,0.00256034
960,38.4405,-0.0044087,0.00256343
965,38.6405,-0.00472873,0.00255628
970,38.8405,-0.00435416,0.00256588
975,39.0405,-0.00345709,0.00257809
980,39.2405,-0.00222877,0.00261038
985,39.4405,-0.000860418,0.00262704
990,39.6405,0.000468859,0.00263584
995,39.8405,0.00165361,0.00265861
1000,40.0405,0.00261597,0.00267346
1005,40.2405,0.00327814,0.00267458
1010,40.4405,0.00356257,0.00270062
1015,40.6405,0.00343478,0.00269729
1020,40.8406,0.00295158,0.00272409
1025,41.0406,0.00218136,0.00273867
1030,41.2406,0.00119253,0.00272574
1035,41.4406,5.42007e-05,0.00273229
1040,41.6406,-0.00113562,0.00276303
1045,41.8406,-0.00224028,0.00275919
1050,42.0406,-0.00312041,0.00277405
1055,42.2406,-0.00363667,0.00278955
1060,42.4406,-0.00365219,0.00278627
1065,42.6406,-0.00315231,0.00280985
1070,42.8406,-0.0022979,0.00280976
1075,43.0406,-0.00126343,0.00283439
1080,43.2406,-0.000223356,0.00283821
1085,43.4406,0.000647925,0.00285939
1090,43.6406,0.00122503,0.00288377
1095,43.8406,0.00151819,0.00288577
1100,44.0406,0.0015609,0.00291526
1105,44.2406,0.00138666,0.00291414
1110,44.4406,0.00102896,0.00292506
1115,44.6406,0.000522715,0.00291832
1120,44.8406,-8.03439e-05,0.00292162
1125,45.0406,-0.000717514,0.00294499
1130,45.2407,-0.00132591,0.00295746
1135,45.4407,-0.00184263,0.00298287
1140,45.6407,-0.00220479,0.00298425
1145,45.8407,-0.00236152,0.00300253
1150,46.0407,-0.00231619,0.0030113
1155,46.2407,-0.00208745,0.00302557
1160,46.4407,-0.00169394,0.00302086
1165,46.6407,-0.00115434,0.00306186
1170,46.8407,-0.000487274,0.0030785
1175,47.0407,0.000276132,0.00308776
1180,47.2407,0.00105503,0.00308297
1185,47.4407,0.00175616,0.00310041
1190,47.6407,0.00228625,0.00313069
1195,47.8407,0.00255204,0.00312502
1200,48.0407,0.00246027,0.00314938
1205,48.2407,0.00193776,0.00317716
1210,48.4407,0.00107734,0.00316316
1215,48.6407,5.37271e-05,0.00317123
1220,48.8407,-0.000957785,0.00318315
1225,49.0407,-0.00178191,0.00318008
1230,49.2407,-0.00224335,0.00319563
1235,49.4408,-0.00216681,0.0032142
1240,49.6408,-0.00137701,0.00325174
1245,49.8408,0.000301347,0.00324987
1248,49.9608,0.00180779,4608.38