Folder: torchdisorder/data/xrd_measurements/li2.99_po3.38_n0.41

Note: README.md
# torchdisorder

Torch-based modeling for disordered materials using PyTorch autograd to match target RDFs from XRD or neutron diffraction.

## Features

- Differentiable radial distribution function (RDF) loss
- Automatic config management with Hydra
- Experiment tracking with Weights & Biases
- Compatible with CUDA/GPU acceleration

## Usage

Run an experiment:

```bash
python -m torchdisorder.cli
```

Override parameters:

```bash
python -m torchdisorder.cli experiment.n_steps=10000 optimizer.lr=5e-4
```


```
amorphgen/
│
├── src/
│   └── amorphgen/
│       ├── __init__.py
│       ├── cli.py               # hydra entrypoint
│       ├── data/
│       │   ├── target_rdf.py    # loads & interpolates experimental RDF
│       │   └── utils.py
│       ├── model/
│       │   ├── generator.py     # positions -> (torch.tensor) coords
│       │   ├── rdf.py           # differentiable RDF calculator
│       │   └── loss.py
│       ├── engine/
│       │   ├── trainer.py       # main optimisation loop
│       │   └── callbacks.py     # W&B + other hooks
│       └── viz/
│           └── plot_rdf.py
│
├── configs/                     # hydra default config tree
│   ├── config.yaml
│   ├── experiment/
│   ├── optimizer/
│   ├── system/
│   └── wandb/
│
├── tests/
│
├── pyproject.toml               # poetry / setuptools
└── README.md
```

File: F_of_Q.csv
,Q,F,dF
0,0.01,-41.9954,1e-7
2,0.03,-41.9587,1e-7
4,0.05,-41.8854,0.0001
6,0.07,-41.7753,1e-7
8,0.09,-41.6284,1e-7
10,0.11,-41.4445,1e-7
12,0.13,-41.2234,1e-7
14,0.15,-40.965,1e-7
16,0.17,-40.6691,1e-7
18,0.19,-40.3355,0.0001
20,0.21,-39.964,0.0001
22,0.23,-39.5544,0.0001
24,0.25,-39.1066,0.0001
26,0.27,-38.6205,0.0001
28,0.29,-38.0958,0.0001
30,0.31,-37.5327,0.0001
32,0.33,-36.9312,0.0001
34,0.35,-36.2912,0.0001
36,0.37,-35.6132,0.0001
38,0.39,-34.8972,0.0001
40,0.41,-34.1438,0.0001
42,0.43,-33.3534,0.0001
44,0.45,-32.5267,0.0001
46,0.47,-31.6644,0.0001
48,0.49,-30.7676,0.0001
50,0.51,-29.8371,0.0001
52,0.53,-28.8744,0.0001
54,0.55,-27.8808,0.0001
56,0.57,-26.8579,0.0001
58,0.59,-25.8074,0.0001
60,0.61,-24.7313,0.0001
62,0.63,-23.6316,0.0001
64,0.65,-22.5106,0.0001
66,0.67,-21.3707,0.0001
68,0.69,-20.2146,0.0001
70,0.71,-19.045,0.0001
72,0.73,-17.8648,0.0001
74,0.75,-16.6771,0.0001
76,0.77,-15.485,0.0001
78,0.79,-14.2919,0.0001
80,0.81,-13.101,0.0001
82,0.83,-11.9159,0.0001
84,0.85,-10.7402,0.0001
86,0.87,-9.5774,0.0001
88,0.89,-8.43114,0.0001
90,0.91,-7.30506,0.0001
92,0.93,-6.20276,0.0001
94,0.95,-5.12782,0.0001
96,0.97,-4.08376,0.0001
98,0.99,-3.07401,0.0001
100,1.01,-2.10189,0.0001
102,1.03,-1.17061,0.0001
104,1.05,-0.283192,0.0001
106,1.07,0.557494,0.0001
108,1.09,1.34879,0.0001
110,1.11,2.08825,0.0001
112,1.13,2.77369,0.0001
114,1.15,3.40316,0.0001
116,1.17,3.97501,0.0001
118,1.19,4.48789,0.0001
120,1.21,4.94074,0.0001
122,1.23,5.33283,0.0001
124,1.25,5.66379,0.0001
126,1.27,5.93356,0.0001
128,1.29,6.14243,0.0001
130,1.31,6.29105,0.0001
132,1.33,6.38042,0.0001
134,1.35,6.4119,0.0001
136,1.37,6.38716,0.0001
138,1.39,6.30823,0.0001
140,1.41,6.17747,0.0001
142,1.43,5.99755,0.0001
144,1.45,5.77141,0.0001
146,1.47,5.5023,0.0001
148,1.49,5.19371,0.0001
150,1.51,4.84938,0.0001
152,1.53,4.47324,0.0001
154,1.55,4.0694,0.0001
156,1.57,3.64215,0.0001
158,1.59,3.19587,0.0001
160,1.61,2.73503,0.0001
162,1.63,2.26419,0.0001
164,1.65,1.78789,0.0001
166,1.67,1.31068,0.0001
168,1.69,0.837058,0.0001
170,1.71,0.371431,0.0001
172,1.73,-0.0819036,0.0001
174,1.75,-0.5188,0.0001
176,1.77,-0.935298,0.0001
178,1.79,-1.32765,0.0001
180,1.81,-1.69237,0.0001
182,1.83,-2.02622,0.0001
184,1.85,-2.32627,0.0001
186,1.87,-2.58993,0.0001
188,1.89,-2.81495,0.0001
190,1.91,-2.99941,0.0001
192,1.93,-3.14182,0.0001
194,1.95,-3.24104,0.0001
196,1.97,-3.29635,0.0001
198,1.99,-3.30742,0.0001
200,2.01,-3.27434,0.0001
202,2.03,-3.19759,0.0001
204,2.05,-3.07807,0.0001
206,2.07,-2.91705,0.0001
208,2.09,-2.71618,0.0001
210,2.11,-2.47749,0.0001
212,2.13,-2.20334,0.0001
214,2.15,-1.8964,0.0001
216,2.17,-1.55967,0.0001
218,2.19,-1.19638,0.0001
220,2.21,-0.810024,0.0001
222,2.23,-0.404301,0.0001
224,2.25,0.0169251,0.0001
226,2.27,0.449651,0.0001
228,2.29,0.889773,0.0001
230,2.31,1.33313,0.0001
232,2.33,1.77552,0.0001
234,2.35,2.21279,0.0001
236,2.37,2.64081,0.0001
238,2.39,3.05556,0.0001
240,2.41,3.45313,0.0001
242,2.43,3.8298,0.0001
244,2.45,4.18204,0.0001
246,2.47,4.50654,0.0001
248,2.49,4.80027,0.0001
250,2.51,5.06047,0.0001
252,2.53,5.28472,0.0001
254,2.55,5.47091,0.0001
256,2.57,5.6173,0.0001
258,2.59,5.72253,0.0001
260,2.61,5.78559,0.0001
262,2.63,5.80589,0.0001
264,2.65,5.78321,0.0001
266,2.67,5.71775,0.0001
268,2.69,5.61008,0.0001
270,2.71,5.46117,0.0001
272,2.73,5.27234,0.0001
274,2.75,5.04529,0.0001
276,2.77,4.78204,0.0001
278,2.79,4.48496,0.0001
280,2.81,4.15668,0.0001
282,2.83,3.80012,0.0001
284,2.85,3.41844,0.0001
286,2.87,3.015,0.0001
288,2.89,2.59334,0.0001
290,2.91,2.15712,0.0001
292,2.93,1.71014,0.0001
294,2.95,1.25623,0.0001
296,2.97,0.799263,0.0001
298,2.99,0.343115,0.0001
300,3.01,-0.108399,0.0001
302,3.03,-0.551542,0.0001
304,3.05,-0.982692,0.0001
306,3.07,-1.39838,0.0001
308,3.09,-1.79532,0.0001
310,3.11,-2.17045,0.0001
312,3.13,-2.52093,0.0001
314,3.15,-2.84419,0.0001
316,3.17,-3.13798,0.0001
318,3.19,-3.40032,0.0001
320,3.21,-3.62957,0.0001
322,3.23,-3.82443,0.0001
324,3.25,-3.98394,0.0001
326,3.27,-4.10751,0.0001
328,3.29,-4.19487,0.0001
330,3.31,-4.24613,0.0001
332,3.33,-4.26173,0.0001
334,3.35,-4.24247,0.0001
336,3.37,-4.18945,0.0001
338,3.39,-4.1041,0.0001
340,3.41,-3.98813,0.0001
342,3.43,-3.84352,0.0001
344,3.45,-3.67252,0.0001
346,3.47,-3.47756,0.0001
348,3.49,-3.26131,0.0001
350,3.51,-3.02656,0.0001
352,3.53,-2.77627,0.0001
354,3.55,-2.51347,0.0001
356,3.57,-2.24127,0.0001
358,3.59,-1.96281,0.0001
360,3.61,-1.68125,0.0001
362,3.63,-1.39968,0.0001
364,3.65,-1.12116,0.0001
366,3.67,-0.84864,0.0001
368,3.69,-0.58494,0.0001
370,3.71,-0.332736,0.0001
372,3.73,-0.094521,0.0001
374,3.75,0.127415,0.0001
376,3.77,0.331005,0.0001
378,3.79,0.514428,0.0001
380,3.81,0.676121,0.0001
382,3.83,0.814793,0.0001
384,3.85,0.929434,0.0001
386,3.87,1.01933,0.0001
388,3.89,1.08404,0.0001
390,3.91,1.12344,0.0001
392,3.93,1.13769,0.0001
394,3.95,1.12721,0.0001
396,3.97,1.09274,0.0001
398,3.99,1.03524,0.0001
400,4.01,0.955936,0.0001
402,4.03,0.856294,0.0001
404,4.05,0.737983,0.0001
406,4.07,0.602863,0.0001
408,4.09,0.452965,0.0001
410,4.11,0.290463,0.0001
412,4.13,0.117646,0.0001
414,4.15,-0.063105,0.0001
416,4.17,-0.249346,0.0001
418,4.19,-0.438599,0.0001
420,4.21,-0.628379,0.0001
422,4.23,-0.816221,0.0001
424,4.25,-0.999709,0.0001
426,4.27,-1.1765,0.0001
428,4.29,-1.34435,0.0001
430,4.31,-1.50113,0.0001
432,4.33,-1.64488,0.0001
434,4.35,-1.77377,0.0001
436,4.37,-1.88618,0.0001
438,4.39,-1.98068,0.0001
440,4.41,-2.05604,0.0001
442,4.43,-2.11126,0.0001
444,4.45,-2.14558,0.0001
446,4.47,-2.15846,0.0001
448,4.49,-2.14961,0.0001
450,4.51,-2.11898,0.0001
452,4.53,-2.06673,0.0001
454,4.55,-1.9933,0.0001
456,4.57,-1.89931,0.0001
458,4.59,-1.78561,0.0001
460,4.61,-1.65326,0.0001
462,4.63,-1.50349,0.0001
464,4.65,-1.33772,0.0001
466,4.67,-1.1575,0.0001
468,4.69,-0.964543,0.0001
470,4.71,-0.760655,0.0001
472,4.73,-0.547746,0.0001
474,4.75,-0.327791,0.0001
476,4.77,-0.102817,0.0001
478,4.79,0.125123,0.0001
480,4.81,0.353975,0.0001
482,4.83,0.581699,0.0001
484,4.85,0.8063,0.0001
486,4.87,1.02584,0.0001
488,4.89,1.23847,0.0001
490,4.91,1.44242,0.0001
492,4.93,1.63606,0.0001
494,4.95,1.81789,0.0001
496,4.97,1.98653,0.0001
498,4.99,2.14077,0.0001
500,5.01,2.27959,0.0001
502,5.03,2.40212,0.0001
504,5.05,2.50767,0.0001
506,5.07,2.59574,0.0001
508,5.09,2.66602,0.0001
510,5.11,2.71838,0.0001
512,5.13,2.75287,0.0001
514,5.15,2.76972,0.0001
516,5.17,2.76932,0.0001
518,5.19,2.75225,0.0001
520,5.21,2.7192,0.0001
522,5.23,2.67103,0.0001
524,5.25,2.60873,0.0001
526,5.27,2.53337,0.0001
528,5.29,2.44616,0.0001
530,5.31,2.34836,0.0001
532,5.33,2.24131,0.0001
534,5.35,2.12639,0.0001
536,5.37,2.00501,0.0001
538,5.39,1.87861,0.0001
540,5.41,1.74861,0.0001
542,5.43,1.61642,0.0001
544,5.45,1.4834,0.0001
546,5.47,1.35089,0.0001
548,5.49,1.22014,0.0001
550,5.51,1.09233,0.0001
552,5.53,0.968566,0.0001
554,5.55,0.849832,0.0001
556,5.57,0.737021,0.0001
558,5.59,0.630907,0.0001
560,5.61,0.532144,0.0001
562,5.63,0.441263,0.0001
564,5.65,0.358666,0.0001
566,5.67,0.284629,0.0001
568,5.69,0.219302,0.0001
570,5.71,0.162707,0.0001
572,5.73,0.114748,0.0001
574,5.75,0.0752146,0.0001
576,5.77,0.0437842,0.0001
578,5.79,0.0200349,0.0001
580,5.81,0.00345206,0.0001
582,5.83,-0.00656172,0.0001
584,5.85,-0.0106758,0.0001
586,5.87,-0.00962039,0.0001
588,5.89,-0.00417478,0.0001
590,5.91,0.00484479,0.0001
592,5.93,0.0165974,0.0001
594,5.95,0.0302296,0.0001
596,5.97,0.0448879,0.0001
598,5.99,0.0597304,0.0001
599,6.0,0.0669636,0.0001