Folder: torchdisorder/data/xrd_measurements/Li3PS4

Note: README.md
# torchdisorder

Torch-based modeling for disordered materials using PyTorch autograd to match target RDFs from XRD or neutron diffraction.

## Features

- Differentiable radial distribution function (RDF) loss
- Automatic config management with Hydra
- Experiment tracking with Weights & Biases
- Compatible with CUDA/GPU acceleration

## Usage

Run an experiment:

```bash
python -m torchdisorder.cli
```

Override parameters:

```bash
python -m torchdisorder.cli experiment.n_steps=10000 optimizer.lr=5e-4
```


```
amorphgen/
│
├── src/
│   └── amorphgen/
│       ├── __init__.py
│       ├── cli.py               # hydra entrypoint
│       ├── data/
│       │   ├── target_rdf.py    # loads & interpolates experimental RDF
│       │   └── utils.py
│       ├── model/
│       │   ├── generator.py     # positions -> (torch.tensor) coords
│       │   ├── rdf.py           # differentiable RDF calculator
│       │   └── loss.py
│       ├── engine/
│       │   ├── trainer.py       # main optimisation loop
│       │   └── callbacks.py     # W&B + other hooks
│       └── viz/
│           └── plot_rdf.py
│
├── configs/                     # hydra default config tree
│   ├── config.yaml
│   ├── experiment/
│   ├── optimizer/
│   ├── system/
│   └── wandb/
│
├── tests/
│
├── pyproject.toml               # poetry / setuptools
└── README.md
```

File: F_of_Q.csv
Q,F,dF
-0.537148,-0.192282,0
-0.456943,-0.203416,0
-0.37675,-0.208308,0
-0.29657,-0.20491,0
-0.216404,-0.189703,0
-0.136254,-0.155815,0
-0.056122,-0.083598,0
0.02399053,0.059339,0
0.104082,0.312226,0
0.184151,0.639184,0
0.264195,0.852211,0
0.344213,0.788545,0
0.424204,0.582097,0
0.504165,0.414081,0
0.584095,0.325264,0
0.663993,0.320968,0
0.743857,0.389971,0
0.8236841,0.562401,0
0.903474,0.906525,0
0.983225,1.362755,0
1.06293,1.865131,0
1.1426,1.784908,0
1.22223,1.282523,0
1.3018,0.900817,0
1.38133,0.698291,0
1.46081,0.603924,0
1.54024,0.570399,0
1.61962,0.581014,0
1.69895,0.617022,0
1.77822,0.653571,0
1.85743,0.712292,0
1.93658,0.77065,0
2.01567,0.831238,0
2.0947,0.93426,0
2.17367,0.933007,0
2.25257,0.950732,0
2.3314,0.995668,0
2.41017,1.080052,0
2.48886,1.194767,0
2.56749,1.288097,0
2.64604,1.376541,0
2.72451,1.363839,0
2.80291,1.35814,0
2.88123,1.349314,0
2.95947,1.335462,0
3.03763,1.326753,0
3.1157,1.309476,0
3.19369,1.253335,0
3.2716,1.171411,0
3.34941,1.081803,0
3.42714,0.998461,0
3.50477,0.931949,0
3.58232,0.888988,0
3.65977,0.854939,0
3.73712,0.850153,0
3.81437,0.84671,0
3.89153,0.842206,0
3.96858,0.826781,0
4.04554,0.810332,0
4.12238,0.807282,0
4.19913,0.795082,0
4.27576,0.777805,0
4.35229,0.795477,0
4.42871,0.803626,0
4.50501,0.832599,0
4.58121,0.864172,0
4.65728,0.910673,0
4.73324,0.945374,0
4.80909,0.993595,0
4.88481,1.019968,0
4.96041,1.063852,0
5.03589,1.09079,0
5.11124,1.106957,0
5.18647,1.132079,0
5.26158,1.136104,0
5.33655,1.13509,0
5.41139,1.121534,0
5.4861,1.127984,0
5.56068,1.084281,0
5.63512,1.07415,0
5.70942,1.038793,0
5.78359,1.02563,0
5.85762,1.019001,0
5.9315,1.001705,0
6.00525,1.005742,0
6.07884,1.002967,0
6.1523,1.000364,0
6.2256,1.00173,0
6.29876,1.01188,0
6.37177,1.008999,0
6.44462,1.025803,0
6.51732,1.025172,0
6.58987,1.042332,0
6.66226,1.041378,0
6.73449,1.035507,0
6.80657,1.033317,0
6.87848,1.033721,0
6.95023,1.027524,0
7.02182,1.020577,0
7.09324,1.004546,0
7.16449,0.979497,0
7.23558,0.963178,0
7.3065,0.957946,0
7.37724,0.926481,0
7.44782,0.918925,0
7.51821,0.896733,0
7.58844,0.892,0
7.65849,0.868595,0
7.72836,0.879054,0
7.79804,0.871054,0
7.86755,0.868751,0
7.93688,0.889909,0
8.00602,0.908065,0
8.07498,0.915388,0
8.14375,0.912256,0
8.21233,0.947403,0
8.28072,0.979639,0
8.34892,1.012886,0
8.41692,1.033257,0
8.48474,1.049692,0
8.55236,1.090881,0
8.61978,1.107627,0
8.687,1.10523,0
8.75403,1.133797,0
8.82085,1.128187,0
8.88747,1.139594,0
8.95389,1.159093,0
9.0201,1.10502,0
9.08611,1.135352,0
9.1519,1.105964,0
9.21749,1.077228,0
9.28287,1.072507,0
9.34804,1.05237,0
9.41299,1.037236,0
9.47773,0.998294,0
9.54226,1.024263,0
9.60656,0.981426,0
9.67065,0.967036,0
9.73452,0.945496,0
9.79817,0.97769,0
9.86159,0.936993,0
9.9248,0.941249,0
9.98777,0.922386,0
10.0505,0.938589,0
10.113,0.926436,0
10.1753,0.930732,0
10.2374,0.933492,0
10.2992,0.943128,0
10.3608,0.959571,0
10.4222,0.936138,0
10.4833,0.967588,0
10.5442,0.960472,0
10.6049,0.956834,0
10.6653,0.953206,0
10.7255,0.967382,0
10.7854,0.972461,0
10.8451,1.012589,0
10.9046,0.99881,0
10.9638,0.973545,0
11.0227,0.970975,0
11.0814,1.010004,0
11.1399,1.017482,0
11.1981,0.986145,0
11.2561,0.990726,0
11.3138,1.009892,0
11.3712,1.001543,0
11.4284,0.965338,0
11.4854,0.981937,0
11.5421,0.989883,0
11.5985,1.001972,0
11.6547,0.986333,0
11.7106,1.013328,0
11.7662,1.0066,0
11.8216,1.037886,0
11.8767,1.012072,0
11.9316,1.042441,0
11.9862,1.037993,0
12.0405,1.06457,0
12.0945,1.036065,0
12.1483,1.059539,0
12.2018,1.054786,0
12.2551,1.11935,0
12.308,1.074985,0
12.3607,1.091851,0
12.4131,1.055166,0
12.4653,1.068746,0
12.5171,1.060721,0
12.5687,1.034638,0
12.62,1.027333,0
12.6711,1.06204,0
12.7218,1.059548,0
12.7723,1.046183,0
12.8224,0.984079,0
12.8723,1.00656,0
12.9219,0.939626,0
12.9713,0.985724,0
13.0203,0.954748,0
13.069,0.941874,0
13.1175,1.00117,0
13.1657,0.904865,0
13.2135,0.917138,0
13.2611,0.946354,0
13.3084,0.916515,0
13.3554,0.920528,0
13.4021,0.914304,0
13.4485,0.920739,0
13.4946,0.929771,0
13.5404,0.947485,0
13.5859,0.930759,0
13.6311,0.918774,0
13.676,0.950832,0
13.7206,0.948799,0
13.7649,0.927045,0
13.8089,0.966185,0
13.8526,0.921764,0
13.896,0.993921,0
13.9391,0.954298,0
13.9818,0.956162,0
14.0243,0.974936,0
14.0664,0.997673,0
14.1083,0.998728,0
14.1498,0.979732,0
14.191,1.017798,0
14.2319,0.997461,0
14.2725,1.011429,0
14.3128,1.055593,0
14.3527,1.03041,0
14.3924,0.98176,0
14.4317,1.02591,0
14.4707,1.012848,0
14.5094,1.081633,0
14.5478,1.058537,0
14.5858,1.124153,0
14.6236,1.042876,0
14.661,1.0729,0
14.6981,1.015115,0
14.7348,0.984531,0
14.7713,1.031619,0
14.8074,0.971544,0
14.8432,1.012039,0
14.8786,1.030084,0
14.9138,1.044047,0
14.9486,1.072165,0
14.9831,0.984578,0
15.0172,1.028455,0
15.051,1.054719,0
15.0845,0.994953,0
15.1177,1.167944,0
15.1505,1.021488,0
15.183,1.105571,0
15.2152,1.017569,0
15.247,1.025492,0
15.2785,1.014195,0
15.3096,1.021956,0
15.3405,0.959422,0
15.3709,0.940929,0
15.4011,0.952379,0
15.4309,0.943337,0
15.4604,1.007218,0
15.4895,0.930154,0
15.5183,0.923913,0
15.5468,0.975948,0
15.5749,0.940189,0
15.6026,0.95553,0
15.6301,0.987012,0
15.6572,0.95818,0
15.6839,1.033614,0
15.7103,0.974752,0
15.7364,1.054709,0
15.7621,0.966675,0
15.7874,0.943866,0
15.8125,1.037339,0
15.8371,0.893392,0
15.8615,0.987931,0
15.8854,0.975461,0
15.9091,1.020214,0
15.9324,0.983474,0
15.9553,1.033821,0
15.9779,1.016971,0
16.0001,1.025637,0
16.022,1.052216,0
16.0435,0.956306,0
16.0647,0.958962,0
16.0856,0.963394,0
16.106,0.926236,0
16.1262,0.925624,0
16.146,0.981857,0
16.1654,0.965641,0
16.1845,0.924741,0
16.2032,0.992961,0
16.2215,1.015367,0
16.2395,0.944727,0
16.2572,0.981607,0
16.2745,0.915014,0
16.2914,0.906871,0
16.308,0.909029,0
16.3243,0.903643,0
16.3401,0.922614,0
16.3413,0.927425,0

File: F_of_Q_orig.csv
,Q,F,dF
0,-0.537148,-0.192282,0
26,-0.456943,-0.203416,0
52,-0.37675,-0.208308,0
78,-0.29657,-0.20491,0
104,-0.216404,-0.189703,0
130,-0.136254,-0.155815,0
156,-0.056122,-0.083598,0
182,0.02399053,0.059339,0
208,0.104082,0.312226,0
234,0.184151,0.639184,0
260,0.264195,0.852211,0
286,0.344213,0.788545,0
312,0.424204,0.582097,0
338,0.504165,0.414081,0
364,0.584095,0.325264,0
390,0.663993,0.320968,0
416,0.743857,0.389971,0
442,0.8236841,0.562401,0
468,0.903474,0.906525,0
494,0.983225,1.362755,0
520,1.06293,1.865131,0
546,1.1426,1.784908,0
572,1.22223,1.282523,0
598,1.3018,0.900817,0
624,1.38133,0.698291,0
650,1.46081,0.603924,0
676,1.54024,0.570399,0
702,1.61962,0.581014,0
728,1.69895,0.617022,0
754,1.77822,0.653571,0
780,1.85743,0.712292,0
806,1.93658,0.77065,0
832,2.01567,0.831238,0
858,2.0947,0.93426,0
884,2.17367,0.933007,0
910,2.25257,0.950732,0
936,2.3314,0.995668,0
962,2.41017,1.080052,0
988,2.48886,1.194767,0
1014,2.56749,1.288097,0
1040,2.64604,1.376541,0
1066,2.72451,1.363839,0
1092,2.80291,1.35814,0
1118,2.88123,1.349314,0
1144,2.95947,1.335462,0
1170,3.03763,1.326753,0
1196,3.1157,1.309476,0
1222,3.19369,1.253335,0
1248,3.2716,1.171411,0
1274,3.34941,1.081803,0
1300,3.42714,0.998461,0
1326,3.50477,0.931949,0
1352,3.58232,0.888988,0
1378,3.65977,0.854939,0
1404,3.73712,0.850153,0
1430,3.81437,0.84671,0
1456,3.89153,0.842206,0
1482,3.96858,0.826781,0
1508,4.04554,0.810332,0
1534,4.12238,0.807282,0
1560,4.19913,0.795082,0
1586,4.27576,0.777805,0
1612,4.35229,0.795477,0
1638,4.42871,0.803626,0
1664,4.50501,0.832599,0
1690,4.58121,0.864172,0
1716,4.65728,0.910673,0
1742,4.73324,0.945374,0
1768,4.80909,0.993595,0
1794,4.88481,1.019968,0
1820,4.96041,1.063852,0
1846,5.03589,1.09079,0
1872,5.11124,1.106957,0
1898,5.18647,1.132079,0
1924,5.26158,1.136104,0
1950,5.33655,1.13509,0
1976,5.41139,1.121534,0
2002,5.4861,1.127984,0
2028,5.56068,1.084281,0
2054,5.63512,1.07415,0
2080,5.70942,1.038793,0
2106,5.78359,1.02563,0
2132,5.85762,1.019001,0
2158,5.9315,1.001705,0
2184,6.00525,1.005742,0
2210,6.07884,1.002967,0
2236,6.1523,1.000364,0
2262,6.2256,1.00173,0
2288,6.29876,1.01188,0
2314,6.37177,1.008999,0
2340,6.44462,1.025803,0
2366,6.51732,1.025172,0
2392,6.58987,1.042332,0
2418,6.66226,1.041378,0
2444,6.73449,1.035507,0
2470,6.80657,1.033317,0
2496,6.87848,1.033721,0
2522,6.95023,1.027524,0
2548,7.02182,1.020577,0
2574,7.09324,1.004546,0
2600,7.16449,0.979497,0
2626,7.23558,0.963178,0
2652,7.3065,0.957946,0
2678,7.37724,0.926481,0
2704,7.44782,0.918925,0
2730,7.51821,0.896733,0
2756,7.58844,0.892,0
2782,7.65849,0.868595,0
2808,7.72836,0.879054,0
2834,7.79804,0.871054,0
2860,7.86755,0.868751,0
2886,7.93688,0.889909,0
2912,8.00602,0.908065,0
2938,8.07498,0.915388,0
2964,8.14375,0.912256,0
2990,8.21233,0.947403,0
3016,8.28072,0.979639,0
3042,8.34892,1.012886,0
3068,8.41692,1.033257,0
3094,8.48474,1.049692,0
3120,8.55236,1.090881,0
3146,8.61978,1.107627,0
3172,8.687,1.10523,0
3198,8.75403,1.133797,0
3224,8.82085,1.128187,0
3250,8.88747,1.139594,0
3276,8.95389,1.159093,0
3302,9.0201,1.10502,0
3328,9.08611,1.135352,0
3354,9.1519,1.105964,0
3380,9.21749,1.077228,0
3406,9.28287,1.072507,0
3432,9.34804,1.05237,0
3458,9.41299,1.037236,0
3484,9.47773,0.998294,0
3510,9.54226,1.024263,0
3536,9.60656,0.981426,0
3562,9.67065,0.967036,0
3588,9.73452,0.945496,0
3614,9.79817,0.97769,0
3640,9.86159,0.936993,0
3666,9.9248,0.941249,0
3692,9.98777,0.922386,0
3718,10.0505,0.938589,0
3744,10.113,0.926436,0
3770,10.1753,0.930732,0
3796,10.2374,0.933492,0
3822,10.2992,0.943128,0
3848,10.3608,0.959571,0
3874,10.4222,0.936138,0
3900,10.4833,0.967588,0
3926,10.5442,0.960472,0
3952,10.6049,0.956834,0
3978,10.6653,0.953206,0
4004,10.7255,0.967382,0
4030,10.7854,0.972461,0
4056,10.8451,1.012589,0
4082,10.9046,0.99881,0
4108,10.9638,0.973545,0
4134,11.0227,0.970975,0
4160,11.0814,1.010004,0
4186,11.1399,1.017482,0
4212,11.1981,0.986145,0
4238,11.2561,0.990726,0
4264,11.3138,1.009892,0
4290,11.3712,1.001543,0
4316,11.4284,0.965338,0
4342,11.4854,0.981937,0
4368,11.5421,0.989883,0
4394,11.5985,1.001972,0
4420,11.6547,0.986333,0
4446,11.7106,1.013328,0
4472,11.7662,1.0066,0
4498,11.8216,1.037886,0
4524,11.8767,1.012072,0
4550,11.9316,1.042441,0
4576,11.9862,1.037993,0
4602,12.0405,1.06457,0
4628,12.0945,1.036065,0
4654,12.1483,1.059539,0
4680,12.2018,1.054786,0
4706,12.2551,1.11935,0
4732,12.308,1.074985,0
4758,12.3607,1.091851,0
4784,12.4131,1.055166,0
4810,12.4653,1.068746,0
4836,12.5171,1.060721,0
4862,12.5687,1.034638,0
4888,12.62,1.027333,0
4914,12.6711,1.06204,0
4940,12.7218,1.059548,0
4966,12.7723,1.046183,0
4992,12.8224,0.984079,0
5018,12.8723,1.00656,0
5044,12.9219,0.939626,0
5070,12.9713,0.985724,0
5096,13.0203,0.954748,0
5122,13.069,0.941874,0
5148,13.1175,1.00117,0
5174,13.1657,0.904865,0
5200,13.2135,0.917138,0
5226,13.2611,0.946354,0
5252,13.3084,0.916515,0
5278,13.3554,0.920528,0
5304,13.4021,0.914304,0
5330,13.4485,0.920739,0
5356,13.4946,0.929771,0
5382,13.5404,0.947485,0
5408,13.5859,0.930759,0
5434,13.6311,0.918774,0
5460,13.676,0.950832,0
5486,13.7206,0.948799,0
5512,13.7649,0.927045,0
5538,13.8089,0.966185,0
5564,13.8526,0.921764,0
5590,13.896,0.993921,0
5616,13.9391,0.954298,0
5642,13.9818,0.956162,0
5668,14.0243,0.974936,0
5694,14.0664,0.997673,0
5720,14.1083,0.998728,0
5746,14.1498,0.979732,0
5772,14.191,1.017798,0
5798,14.2319,0.997461,0
5824,14.2725,1.011429,0
5850,14.3128,1.055593,0
5876,14.3527,1.03041,0
5902,14.3924,0.98176,0
5928,14.4317,1.02591,0
5954,14.4707,1.012848,0
5980,14.5094,1.081633,0
6006,14.5478,1.058537,0
6032,14.5858,1.124153,0
6058,14.6236,1.042876,0
6084,14.661,1.0729,0
6110,14.6981,1.015115,0
6136,14.7348,0.984531,0
6162,14.7713,1.031619,0
6188,14.8074,0.971544,0
6214,14.8432,1.012039,0
6240,14.8786,1.030084,0
6266,14.9138,1.044047,0
6292,14.9486,1.072165,0
6318,14.9831,0.984578,0
6344,15.0172,1.028455,0
6370,15.051,1.054719,0
6396,15.0845,0.994953,0
6422,15.1177,1.167944,0
6448,15.1505,1.021488,0
6474,15.183,1.105571,0
6500,15.2152,1.017569,0
6526,15.247,1.025492,0
6552,15.2785,1.014195,0
6578,15.3096,1.021956,0
6604,15.3405,0.959422,0
6630,15.3709,0.940929,0
6656,15.4011,0.952379,0
6682,15.4309,0.943337,0
6708,15.4604,1.007218,0
6734,15.4895,0.930154,0
6760,15.5183,0.923913,0
6786,15.5468,0.975948,0
6812,15.5749,0.940189,0
6838,15.6026,0.95553,0
6864,15.6301,0.987012,0
6890,15.6572,0.95818,0
6916,15.6839,1.033614,0
6942,15.7103,0.974752,0
6968,15.7364,1.054709,0
6994,15.7621,0.966675,0
7020,15.7874,0.943866,0
7046,15.8125,1.037339,0
7072,15.8371,0.893392,0
7098,15.8615,0.987931,0
7124,15.8854,0.975461,0
7150,15.9091,1.020214,0
7176,15.9324,0.983474,0
7202,15.9553,1.033821,0
7228,15.9779,1.016971,0
7254,16.0001,1.025637,0
7280,16.022,1.052216,0
7306,16.0435,0.956306,0
7332,16.0647,0.958962,0
7358,16.0856,0.963394,0
7384,16.106,0.926236,0
7410,16.1262,0.925624,0
7436,16.146,0.981857,0
7462,16.1654,0.965641,0
7488,16.1845,0.924741,0
7514,16.2032,0.992961,0
7540,16.2215,1.015367,0
7566,16.2395,0.944727,0
7592,16.2572,0.981607,0
7618,16.2745,0.915014,0
7644,16.2914,0.906871,0
7670,16.308,0.909029,0
7696,16.3243,0.903643,0
7722,16.3401,0.922614,0
7724,16.3413,0.927425,0

File: g_of_r.csv
r,G_r
0.01,-0.006186
0.18,-0.100526
0.35,-0.19832
0.52,-0.291261
0.69,-0.39078
0.86,-0.481434
1.03,-0.584204
1.2,-0.669926
1.37,-0.780463
1.54,-0.857869
1.71,-1.075253
1.88,0.07827
2.05,1.886624
2.22,0.258545
2.39,-0.81366
2.56,-0.539148
2.73,-1.085698
2.9,-1.20517
3.07,-1.017376
3.24,0.748066
3.41,1.444551
3.58,0.411202
3.75,0.24912
3.92,0.564514
4.09,0.464516
4.26,0.189759
4.43,-0.070334
4.6,-0.320738
4.77,-0.340082
4.94,-0.340128
5.11,-0.2063
5.28,-0.044572
5.45,-0.115961
5.62,-0.121906
5.79,-0.093339
5.96,0.04224
6.13,0.262649
6.3,0.490111
6.47,0.620254
6.64,0.634542
6.81,0.601461
6.98,0.413686
7.15,0.334445
7.32,0.095328
7.49,-0.038614
7.66,-0.135056
7.83,-0.268825
8,-0.333267
8.17,-0.405119
8.34,-0.455551
8.51,-0.412942
8.68,-0.294583
8.85,-0.143896
9.02,0.102085
9.19,0.095688
9.36,0.23672
9.53,0.232012
9.7,0.150825
9.87,0.17822
10.04,0.163176
10.21,0.113456
10.38,0.080973
10.55,0.089771
10.72,-0.012588
10.89,0.000735
11.06,-0.121275
11.23,-0.152825
11.4,-0.169026
11.57,-0.198269
11.74,-0.103605
11.91,-0.128238
12.08,0.033245
12.25,0.096372
12.42,0.100013
12.59,0.183602
12.76,0.081292
12.93,0.121163
13.1,0.001816
13.27,-0.073698
13.44,-0.014299
13.61,-0.149388
13.78,-0.143596
13.95,-0.129065
14.12,-0.156141
14.29,-0.11522
14.46,-0.124545
14.63,-0.068679
14.8,-0.042634
14.97,-0.03832
15.14,0.034877
15.31,0.005378
15.48,0.101234
15.65,0.097423
15.82,0.079832
15.99,0.090938
16.16,0.073576
16.33,0.054072
16.5,0.008375
16.67,0.018824
16.84,-0.075705
17.01,-0.045448
17.18,-0.049614
17.35,-0.068332
17.52,-0.062627
17.69,-0.048867
17.86,0.00382
18.03,-0.023029
18.2,0.041434
18.37,0.052206
18.54,0.040584
18.71,0.083382
18.88,0.024344
19.05,0.0786
19.22,0.035453
19.39,-0.004594
19.56,0.021323
19.73,-0.024233
19.9,0.012806
20.07,-0.051841
20.24,-0.01038
20.41,-0.006985
20.58,-0.006858
20.75,0.009522
20.92,-0.003604
21.09,0.063741
21.26,0.02381
21.43,0.061496
21.6,0.043698
21.77,0.039288
21.94,0.05093
22.11,0.000665
22.28,0.037001
22.45,0.004786
22.62,0.031107
22.79,-0.032766
22.96,-0.026386
23.13,-0.018996
23.3,-0.04376
23.47,0.012689
23.64,-0.063237
23.81,0.008015
23.98,-0.008294
24.15,-0.005213
24.32,0.022
24.49,0.008992
24.66,0.022018
24.83,-0.00066
25,0.021348
25.17,0.021029
25.34,-0.028976
25.51,-0.017726
25.68,-0.015702
25.85,-0.043824
26.02,-0.010446
26.19,-0.017487
26.36,-0.014455
26.53,-0.047875
26.7,0.01495
26.87,-0.031422
27.04,-0.008132
27.21,-0.001573
27.38,-0.0158
27.55,0.017451
27.72,-0.02096
27.89,0.006104
28.06,-0.015448
28.23,0.029563
28.4,-0.043312
28.57,-0.00602
28.74,0.001467
28.91,-0.046448
29.08,-0.00533
29.25,-0.011652
29.42,-0.016428
29.59,-0.011424
29.76,-0.013574
29.93,0.009414
30.1,-0.010072
30.27,-0.016665
30.44,0.038625
30.61,-0.017213
30.78,0.028774
30.95,0.013912
31.12,-0.002102
31.29,0.028174
31.46,-0.018764
31.63,0.024345
31.8,0.011242
31.97,-0.027123
32.14,0.021304
32.31,-0.008788
32.48,-0.002051
32.65,0.006663
32.82,-0.000222
32.99,0.009434
33.16,0.028064
33.33,0.022048
33.5,-0.006143
33.67,0.034472
33.84,0.00507
34.01,0.005848
34.18,-0.000465
34.35,0.026587
34.52,0.012021
34.69,0.001269
34.86,0.015439
35.03,0.004909
35.2,0.011599
35.37,-0.002763
35.54,0.018964
35.71,-0.00116
35.88,-0.01145
36.05,0.011149
36.22,-0.005392
36.39,0.005057
36.56,0.014841
36.73,-0.009128
36.9,0.034897
37.07,0.003065
37.24,-0.015121
37.41,0.003259
37.58,0.006535
37.75,0.001374
37.92,-0.015264
38.09,-0.00419
38.26,0.0048
38.43,-0.027684
38.6,0.002932
38.77,0.014542
38.94,-0.016077
39.11,-0.007727
39.28,-0.026379
39.45,0.01087
39.62,-0.023662
39.79,-0.004901
39.96,-0.006354
40.13,0.003344
40.3,-0.007207
40.47,-0.014513
40.64,-0.001991
40.81,-0.023228
40.98,0.013405
41.15,-0.019479
41.32,-0.013847
41.49,-0.002832
41.66,-0.000033
41.83,-0.006467
42,-0.00803
42.17,-0.026304
42.34,0.008698
42.51,-0.011198
42.68,-0.017979
42.85,0.007336
43.02,-0.016356
43.19,0.012205
43.36,-0.007404
43.53,-0.008563
43.7,0.022909
43.87,0.007755
44.04,-0.033582
44.21,0.018018
44.38,0.008134
44.55,-0.036728
44.72,0.021968
44.89,0.014801
45.06,-0.004908
45.23,0.005952
45.4,0.000342
45.57,0.024937
45.74,-0.018062
45.91,-0.008871
46.08,0.032992
46.25,-0.005701
46.42,-0.019597
46.59,0.02608
46.76,0.022448
46.93,-0.010127
47.1,0.011253
47.27,0.025858
47.44,0.010779
47.61,-0.004563
47.78,0.033342
47.95,-0.015984
48.12,-0.010418
48.29,0.011203
48.46,0.008507
48.63,0.004199
48.8,0.008767
48.97,0.024184
49.14,-0.006479
49.31,0.013092
49.48,0.000822
49.65,-0.011207
49.82,0.014285
49.99,0.009638
50,0.006897

File: S_of_Q.csv
Q,SQ
0.462852,-0.192282
0.543057,-0.203416
0.62325,-0.208308
0.70343,-0.20491
0.783596,-0.189703
0.863746,-0.155815
0.943878,-0.083598
1.02399,0.059339
1.10408,0.312226
1.18415,0.639184
1.26419,0.852211
1.34421,0.788545
1.4242,0.582097
1.50417,0.414081
1.5841,0.325264
1.66399,0.320968
1.74386,0.389971
1.82368,0.562401
1.90347,0.906525
1.98322,1.362755
2.06293,1.865131
2.1426,1.784908
2.22223,1.282523
2.3018,0.900817
2.38133,0.698291
2.46081,0.603924
2.54024,0.570399
2.61962,0.581014
2.69895,0.617022
2.77822,0.653571
2.85743,0.712292
2.93658,0.77065
3.01567,0.831238
3.0947,0.93426
3.17367,0.933007
3.25257,0.950732
3.3314,0.995668
3.41017,1.080052
3.48886,1.194767
3.56749,1.288097
3.64604,1.376541
3.72451,1.363839
3.80291,1.35814
3.88123,1.349314
3.95947,1.335462
4.03763,1.326753
4.1157,1.309476
4.19369,1.253335
4.2716,1.171411
4.34941,1.081803
4.42714,0.998461
4.50477,0.931949
4.58232,0.888988
4.65977,0.854939
4.73712,0.850153
4.81437,0.84671
4.89153,0.842206
4.96858,0.826781
5.04554,0.810332
5.12238,0.807282
5.19913,0.795082
5.27576,0.777805
5.35229,0.795477
5.42871,0.803626
5.50501,0.832599
5.58121,0.864172
5.65728,0.910673
5.73324,0.945374
5.80909,0.993595
5.88481,1.019968
5.96041,1.063852
6.03589,1.09079
6.11124,1.106957
6.18647,1.132079
6.26158,1.136104
6.33655,1.13509
6.41139,1.121534
6.4861,1.127984
6.56068,1.084281
6.63512,1.07415
6.70942,1.038793
6.78359,1.02563
6.85762,1.019001
6.9315,1.001705
7.00525,1.005742
7.07884,1.002967
7.1523,1.000364
7.2256,1.00173
7.29876,1.01188
7.37177,1.008999
7.44462,1.025803
7.51732,1.025172
7.58987,1.042332
7.66226,1.041378
7.73449,1.035507
7.80657,1.033317
7.87848,1.033721
7.95023,1.027524
8.02182,1.020577
8.09324,1.004546
8.16449,0.979497
8.23558,0.963178
8.3065,0.957946
8.37724,0.926481
8.44782,0.918925
8.51821,0.896733
8.58844,0.892
8.65849,0.868595
8.72836,0.879054
8.79804,0.871054
8.86755,0.868751
8.93688,0.889909
9.00602,0.908065
9.07498,0.915388
9.14375,0.912256
9.21233,0.947403
9.28072,0.979639
9.34892,1.012886
9.41692,1.033257
9.48474,1.049692
9.55236,1.090881
9.61978,1.107627
9.687,1.10523
9.75403,1.133797
9.82085,1.128187
9.88747,1.139594
9.95389,1.159093
10.0201,1.10502
10.0861,1.135352
10.1519,1.105964
10.2175,1.077228
10.2829,1.072507
10.348,1.05237
10.413,1.037236
10.4777,0.998294
10.5423,1.024263
10.6066,0.981426
10.6707,0.967036
10.7345,0.945496
10.7982,0.97769
10.8616,0.936993
10.9248,0.941249
10.9878,0.922386
11.0505,0.938589
11.113,0.926436
11.1753,0.930732
11.2374,0.933492
11.2992,0.943128
11.3608,0.959571
11.4222,0.936138
11.4833,0.967588
11.5442,0.960472
11.6049,0.956834
11.6653,0.953206
11.7255,0.967382
11.7854,0.972461
11.8451,1.012589
11.9046,0.99881
11.9638,0.973545
12.0227,0.970975
12.0814,1.010004
12.1399,1.017482
12.1981,0.986145
12.2561,0.990726
12.3138,1.009892
12.3712,1.001543
12.4284,0.965338
12.4854,0.981937
12.5421,0.989883
12.5985,1.001972
12.6547,0.986333
12.7106,1.013328
12.7662,1.0066
12.8216,1.037886
12.8767,1.012072
12.9316,1.042441
12.9862,1.037993
13.0405,1.06457
13.0945,1.036065
13.1483,1.059539
13.2018,1.054786
13.2551,1.11935
13.308,1.074985
13.3607,1.091851
13.4131,1.055166
13.4653,1.068746
13.5171,1.060721
13.5687,1.034638
13.62,1.027333
13.6711,1.06204
13.7218,1.059548
13.7723,1.046183
13.8224,0.984079
13.8723,1.00656
13.9219,0.939626
13.9713,0.985724
14.0203,0.954748
14.069,0.941874
14.1175,1.00117
14.1657,0.904865
14.2135,0.917138
14.2611,0.946354
14.3084,0.916515
14.3554,0.920528
14.4021,0.914304
14.4485,0.920739
14.4946,0.929771
14.5404,0.947485
14.5859,0.930759
14.6311,0.918774
14.676,0.950832
14.7206,0.948799
14.7649,0.927045
14.8089,0.966185
14.8526,0.921764
14.896,0.993921
14.9391,0.954298
14.9818,0.956162
15.0243,0.974936
15.0664,0.997673
15.1083,0.998728
15.1498,0.979732
15.191,1.017798
15.2319,0.997461
15.2725,1.011429
15.3128,1.055593
15.3527,1.03041
15.3924,0.98176
15.4317,1.02591
15.4707,1.012848
15.5094,1.081633
15.5478,1.058537
15.5858,1.124153
15.6236,1.042876
15.661,1.0729
15.6981,1.015115
15.7348,0.984531
15.7713,1.031619
15.8074,0.971544
15.8432,1.012039
15.8786,1.030084
15.9138,1.044047
15.9486,1.072165
15.9831,0.984578
16.0172,1.028455
16.051,1.054719
16.0845,0.994953
16.1177,1.167944
16.1505,1.021488
16.183,1.105571
16.2152,1.017569
16.247,1.025492
16.2785,1.014195
16.3096,1.021956
16.3405,0.959422
16.3709,0.940929
16.4011,0.952379
16.4309,0.943337
16.4604,1.007218
16.4895,0.930154
16.5183,0.923913
16.5468,0.975948
16.5749,0.940189
16.6026,0.95553
16.6301,0.987012
16.6572,0.95818
16.6839,1.033614
16.7103,0.974752
16.7364,1.054709
16.7621,0.966675
16.7874,0.943866
16.8125,1.037339
16.8371,0.893392
16.8615,0.987931
16.8854,0.975461
16.9091,1.020214
16.9324,0.983474
16.9553,1.033821
16.9779,1.016971
17.0001,1.025637
17.022,1.052216
17.0435,0.956306
17.0647,0.958962
17.0856,0.963394
17.106,0.926236
17.1262,0.925624
17.146,0.981857
17.1654,0.965641
17.1845,0.924741
17.2032,0.992961
17.2215,1.015367
17.2395,0.944727
17.2572,0.981607
17.2745,0.915014
17.2914,0.906871
17.308,0.909029
17.3243,0.903643
17.3401,0.922614
17.3413,0.927425