Folder: torchdisorder/data/xrd_measurements/Li3PS4_gamma

Note: README.md
# torchdisorder

Torch-based modeling for disordered materials using PyTorch autograd to match target RDFs from XRD or neutron diffraction.

## Features

- Differentiable radial distribution function (RDF) loss
- Automatic config management with Hydra
- Experiment tracking with Weights & Biases
- Compatible with CUDA/GPU acceleration

## Usage

Run an experiment:

```bash
python -m torchdisorder.cli
```

Override parameters:

```bash
python -m torchdisorder.cli experiment.n_steps=10000 optimizer.lr=5e-4
```


```
amorphgen/
│
├── src/
│   └── amorphgen/
│       ├── __init__.py
│       ├── cli.py               # hydra entrypoint
│       ├── data/
│       │   ├── target_rdf.py    # loads & interpolates experimental RDF
│       │   └── utils.py
│       ├── model/
│       │   ├── generator.py     # positions -> (torch.tensor) coords
│       │   ├── rdf.py           # differentiable RDF calculator
│       │   └── loss.py
│       ├── engine/
│       │   ├── trainer.py       # main optimisation loop
│       │   └── callbacks.py     # W&B + other hooks
│       └── viz/
│           └── plot_rdf.py
│
├── configs/                     # hydra default config tree
│   ├── config.yaml
│   ├── experiment/
│   ├── optimizer/
│   ├── system/
│   └── wandb/
│
├── tests/
│
├── pyproject.toml               # poetry / setuptools
└── README.md
```

File: F_of_Q.csv
,Q,F,dF
0,0.01,-0.926275,1e-7
7,0.08,-0.951182,1e-7
14,0.15,-0.976175,1e-7
21,0.22,-0.967157,0.0001
28,0.29,-0.948064,0.0001
35,0.36,-0.945263,0.0001
42,0.43,-0.943299,0.0001
49,0.5,-0.929783,0.0001
56,0.57,-0.92299,0.0001
63,0.64,-0.926649,0.0001
70,0.71,-0.915225,0.0001
77,0.78,-0.883203,0.0001
84,0.85,-0.852665,0.0001
91,0.92,-0.823075,0.0001
98,0.99,-0.771498,0.0001
105,1.06,-0.705856,0.0001
112,1.13,-0.661298,0.0001
119,1.2,-0.644077,0.0001
126,1.27,-0.628944,0.0001
133,1.34,-0.604525,0.0001
140,1.41,-0.576602,0.0001
147,1.48,-0.539364,0.0001
154,1.55,-0.482436,0.0001
161,1.62,-0.413126,0.0001
168,1.69,-0.345804,0.0001
175,1.76,-0.28583,0.0001
182,1.83,-0.234791,0.0001
189,1.9,-0.188801,0.0001
196,1.97,-0.13382,0.0001
203,2.04,-0.070976,0.0001
210,2.11,-0.0326594,0.0001
217,2.18,-0.0408897,0.0001
224,2.25,-0.0720735,0.0001
231,2.32,-0.0950389,0.0001
238,2.39,-0.111433,0.0001
245,2.46,-0.127227,0.0001
252,2.53,-0.125878,0.0001
259,2.6,-0.101976,0.0001
266,2.67,-0.0788824,0.0001
273,2.74,-0.0672836,0.0001
280,2.81,-0.0499444,0.0001
287,2.88,-0.0233273,0.0001
294,2.95,-0.00717391,0.0001
301,3.02,-0.00292502,0.0001
308,3.09,0.0124997,0.0001
315,3.16,0.0485671,0.0001
322,3.23,0.0946051,0.0001
329,3.3,0.143982,0.0001
336,3.37,0.193498,0.0001
343,3.44,0.23371,0.0001
350,3.51,0.2609,0.0001
357,3.58,0.276465,0.0001
364,3.65,0.268493,0.0001
371,3.72,0.229099,0.0001
378,3.79,0.185533,0.0001
385,3.86,0.167664,0.0001
392,3.93,0.155933,0.0001
399,4.0,0.114222,0.0001
406,4.07,0.0555746,0.0001
413,4.14,0.0174648,0.0001
420,4.21,-0.00445832,0.0001
427,4.28,-0.0379703,0.0001
434,4.35,-0.07605,0.0001
441,4.42,-0.0954153,0.0001
448,4.49,-0.105919,0.0001
455,4.56,-0.127973,0.0001
462,4.63,-0.148558,0.0001
469,4.7,-0.14652,0.0001
476,4.77,-0.13376,0.0001
483,4.84,-0.132195,0.0001
490,4.91,-0.137241,0.0001
497,4.98,-0.134809,0.0001
504,5.05,-0.127029,0.0001
511,5.12,-0.117751,0.0001
518,5.19,-0.0995792,0.0001
525,5.26,-0.0727572,0.0001
532,5.33,-0.0514083,0.0001
539,5.4,-0.0387973,0.0001
546,5.47,-0.0201762,0.0001
553,5.54,0.0112477,0.0001
560,5.61,0.042603,0.0001
567,5.68,0.0617085,0.0001
574,5.75,0.0716246,0.0001
581,5.82,0.0811182,0.0001
588,5.89,0.0933788,0.0001
595,5.96,0.104627,0.0001
602,6.03,0.105597,0.0001
609,6.1,0.0889001,0.0001
616,6.17,0.0612954,0.0001
623,6.24,0.0402077,0.0001
630,6.31,0.0325515,0.0001
637,6.38,0.0279026,0.0001
644,6.45,0.0166103,0.0001
651,6.52,0.00127,0.0001
658,6.59,-0.0124788,0.0001
665,6.66,-0.0219309,0.0001
672,6.73,-0.0239423,0.0001
679,6.8,-0.0205328,0.0001
686,6.87,-0.0229452,0.0001
693,6.94,-0.0336789,0.0001
700,7.01,-0.0357244,0.0001
707,7.08,-0.0192991,0.0001
714,7.15,-0.0023093,0.0001
721,7.22,-0.00115969,0.0001
728,7.29,-0.00283851,0.0001
735,7.36,0.00840444,0.0001
742,7.43,0.0218258,0.0001
749,7.5,0.0239224,0.0001
756,7.57,0.0237785,0.0001
763,7.64,0.0302977,0.0001
770,7.71,0.0333983,0.0001
777,7.78,0.027611,0.0001
784,7.85,0.0234995,0.0001
791,7.92,0.0228522,0.0001
798,7.99,0.0151766,0.0001
805,8.06,0.00319347,0.0001
812,8.13,-0.00238394,0.0001
819,8.2,-0.00849682,0.0001
826,8.27,-0.024806,0.0001
833,8.34,-0.037239,0.0001
840,8.41,-0.0322463,0.0001
847,8.48,-0.0257433,0.0001
854,8.55,-0.0336951,0.0001
861,8.62,-0.0422671,0.0001
868,8.69,-0.0381448,0.0001
875,8.76,-0.0347178,0.0001
882,8.83,-0.0415661,0.0001
889,8.9,-0.0446539,0.0001
896,8.97,-0.0370306,0.0001
903,9.04,-0.0314621,0.0001
910,9.11,-0.0303861,0.0001
917,9.18,-0.021,0.0001
924,9.25,-0.0044625,0.0001
931,9.32,0.00558949,0.0001
938,9.39,0.0100898,0.0001
945,9.46,0.0186554,0.0001
952,9.53,0.027666,0.0001
959,9.6,0.0304487,0.0001
966,9.67,0.0325349,0.0001
973,9.74,0.0373336,0.0001
980,9.81,0.0380487,0.0001
987,9.88,0.0354831,0.0001
994,9.95,0.0384969,0.0001
1001,10.02,0.0424022,0.0001
1008,10.09,0.0348989,0.0001
1015,10.16,0.0219037,0.0001
1022,10.23,0.0187915,0.0001
1029,10.3,0.0219555,0.0001
1036,10.37,0.0166268,0.0001
1043,10.44,0.00453525,0.0001
1050,10.51,-0.000777612,0.0001
1057,10.58,0.00250059,0.0001
1064,10.65,0.00500083,0.0001
1071,10.72,0.00254565,0.0001
1078,10.79,-0.00118926,0.0001
1085,10.86,-0.00292449,0.0001
1092,10.93,-0.00400449,0.0001
1099,11.0,-0.00817887,0.0001
1106,11.07,-0.0149079,0.0001
1113,11.14,-0.0169321,0.0001
1120,11.21,-0.0112498,0.0001
1127,11.28,-0.00733814,0.0001
1134,11.35,-0.0132494,0.0001
1141,11.42,-0.021628,0.0001
1148,11.49,-0.0229541,0.0001
1155,11.56,-0.0214349,0.0001
1162,11.63,-0.023509,0.0001
1169,11.7,-0.0242757,0.0001
1176,11.77,-0.0192097,0.0001
1183,11.84,-0.01488,0.0001
1190,11.91,-0.0165445,0.0001
1197,11.98,-0.0191894,0.0001
1204,12.05,-0.0182879,0.0001
1211,12.12,-0.0161419,0.0001
1218,12.19,-0.0145073,0.0001
1225,12.26,-0.012508,0.0001
1232,12.33,-0.0106957,0.0001
1239,12.4,-0.00846229,0.0001
1246,12.47,-0.00274808,0.0001
1253,12.54,0.005001,0.0001
1260,12.61,0.00895527,0.0001
1267,12.68,0.00868469,0.0001
1274,12.75,0.00961386,0.0001
1281,12.82,0.0144522,0.0001
1288,12.89,0.0221108,0.0001
1295,12.96,0.0302169,0.0001
1302,13.03,0.0334149,0.0001
1309,13.1,0.0285979,0.0001
1316,13.17,0.0236148,0.0001
1323,13.24,0.0272864,0.0001
1330,13.31,0.0332726,0.0001
1337,13.38,0.0308601,0.0001
1344,13.45,0.024702,0.0001
1351,13.52,0.0239698,0.0001
1358,13.59,0.0228872,0.0001
1365,13.66,0.0134639,0.0001
1372,13.73,0.00372936,0.0001
1379,13.8,0.00242129,0.0001
1386,13.87,0.00174771,0.0001
1393,13.94,-0.00586994,0.0001
1400,14.01,-0.0121555,0.0001
1407,14.08,-0.0102645,0.0001
1414,14.15,-0.00890312,0.0001
1421,14.22,-0.0160185,0.0001
1428,14.29,-0.0255887,0.0001
1435,14.36,-0.0295343,0.0001
1442,14.43,-0.0282558,0.0001
1449,14.5,-0.0254839,0.0001
1456,14.57,-0.024077,0.0001
1463,14.64,-0.0259222,0.0001
1470,14.71,-0.0282077,0.0001
1477,14.78,-0.0253073,0.0001
1484,14.85,-0.0185003,0.0001
1491,14.92,-0.0144905,0.0001
1498,14.99,-0.0133124,0.0001
1505,15.06,-0.00953083,0.0001
1512,15.13,-0.0038651,0.0001
1519,15.2,-0.00101468,0.0001
1526,15.27,0.000357875,0.0001
1533,15.34,0.00375134,0.0001
1540,15.41,0.00677821,0.0001
1547,15.48,0.00699313,0.0001
1554,15.55,0.00824112,0.0001
1561,15.62,0.0130479,0.0001
1568,15.69,0.0167681,0.0001
1575,15.76,0.0154229,0.0001
1582,15.83,0.0120434,0.0001
1589,15.9,0.0114926,0.0001
1596,15.97,0.0144883,0.0001
1603,16.04,0.0178847,0.0001
1610,16.11,0.0178766,0.0001
1617,16.18,0.014401,0.0001
1624,16.25,0.0124516,0.0001
1631,16.32,0.0149986,0.0001
1638,16.39,0.0172893,0.0001
1645,16.46,0.0144889,0.0001
1652,16.53,0.0102373,0.0001
1659,16.6,0.00974245,0.0001
1666,16.67,0.0102404,0.0001
1673,16.74,0.00669842,0.0001
1680,16.81,0.000964581,0.0001
1687,16.88,-0.00231694,0.0001
1694,16.95,-0.00324225,0.0001
1701,17.02,-0.00446908,0.0001
1708,17.09,-0.00661056,0.0001
1715,17.16,-0.00908159,0.0001
1722,17.23,-0.0113299,0.0001
1729,17.3,-0.0124554,0.0001
1736,17.37,-0.0126642,0.0001
1743,17.44,-0.0134203,0.0001
1750,17.51,-0.0143151,0.0001
1757,17.58,-0.0136022,0.0001
1764,17.65,-0.0125907,0.0001
1771,17.72,-0.0141571,0.0001
1778,17.79,-0.0168531,0.0001
1785,17.86,-0.0163133,0.0001
1792,17.93,-0.0120433,0.0001
1799,18,-0.00775057,0.0001
1806,18.07,-0.00615937,0.0001
1813,18.14,-0.00710877,0.0001
1820,18.21,-0.00866545,0.0001
1827,18.28,-0.00809209,0.0001
1834,18.35,-0.00430308,0.0001
1841,18.42,0.000507913,0.0001
1848,18.49,0.00428356,0.0001
1855,18.56,0.00782472,0.0001
1862,18.63,0.011167,0.0001
1869,18.7,0.0116462,0.0001
1876,18.77,0.00916708,0.0001
1883,18.84,0.00819517,0.0001
1890,18.91,0.0109697,0.0001
1897,18.98,0.0140081,0.0001
1904,19.05,0.0141121,0.0001
1911,19.12,0.0126907,0.0001
1918,19.19,0.0120929,0.0001
1925,19.26,0.0120628,0.0001
1932,19.33,0.0112048,0.0001
1939,19.4,0.0091766,0.0001
1946,19.47,0.00709571,0.0001
1953,19.54,0.00658021,0.0001
1960,19.61,0.00730537,0.0001
1967,19.68,0.00639313,0.0001
1974,19.75,0.00258411,0.0001
1981,19.82,-0.00105194,0.0001
1988,19.89,-0.0015828,0.0001
1995,19.96,-0.000508783,0.0001
2000,20.01,-0.000447895,0.0001