Folder: torchdisorder/data/xrd_measurements/NaTaCl6

Note: README.md
# torchdisorder

Torch-based modeling for disordered materials using PyTorch autograd to match target RDFs from XRD or neutron diffraction.

## Features

- Differentiable radial distribution function (RDF) loss
- Automatic config management with Hydra
- Experiment tracking with Weights & Biases
- Compatible with CUDA/GPU acceleration

## Usage

Run an experiment:

```bash
python -m torchdisorder.cli
```

Override parameters:

```bash
python -m torchdisorder.cli experiment.n_steps=10000 optimizer.lr=5e-4
```


```
amorphgen/
│
├── src/
│   └── amorphgen/
│       ├── __init__.py
│       ├── cli.py               # hydra entrypoint
│       ├── data/
│       │   ├── target_rdf.py    # loads & interpolates experimental RDF
│       │   └── utils.py
│       ├── model/
│       │   ├── generator.py     # positions -> (torch.tensor) coords
│       │   ├── rdf.py           # differentiable RDF calculator
│       │   └── loss.py
│       ├── engine/
│       │   ├── trainer.py       # main optimisation loop
│       │   └── callbacks.py     # W&B + other hooks
│       └── viz/
│           └── plot_rdf.py
│
├── configs/                     # hydra default config tree
│   ├── config.yaml
│   ├── experiment/
│   ├── optimizer/
│   ├── system/
│   └── wandb/
│
├── tests/
│
├── pyproject.toml               # poetry / setuptools
└── README.md
```

File: F_of_Q_actual.csv
,Q,F,dF
0,1.01,3.59625,1e-7
1,1.02,2.14424,1e-7
2,1.03,0.674685,1e-7
3,1.04,-0.755725,1e-7
4,1.05,-2.094,0.0001
5,1.06,-3.29266,0.0001
6,1.07,-4.31131,0.0001
7,1.08,-5.11787,0.0001
8,1.09,-5.68945,0.0001
9,1.1,-6.01287,0.0001
10,1.11,-6.0848,0.0001
11,1.12,-5.91154,0.0001
12,1.13,-5.50841,0.0001
13,1.14,-4.89889,0.0001
14,1.15,-4.11344,0.0001
15,1.16,-3.18811,0.0001
16,1.17,-2.163,0.0001
17,1.18,-1.08064,0.0001
18,1.19,0.0157015,0.0001
19,1.2,1.08369,0.0001
20,1.21,2.08343,0.0001
21,1.22,2.97893,0.0001
22,1.23,3.7393,0.0001
23,1.24,4.33976,0.0001
24,1.25,4.76237,0.0001
25,1.26,4.99648,0.0001
26,1.27,5.03892,0.0001
27,1.28,4.89385,0.0001
28,1.29,4.57243,0.0001
29,1.3,4.09211,0.0001
30,1.31,3.47586,0.0001
31,1.32,2.75105,0.0001
32,1.33,1.94837,0.0001
33,1.34,1.1005,0.0001
34,1.35,0.240871,0.0001
35,1.36,-0.597663,0.0001
36,1.37,-1.38402,0.0001
37,1.38,-2.09002,0.0001
38,1.39,-2.69138,0.0001
39,1.4,-3.16851,0.0001
40,1.41,-3.5071,0.0001
41,1.42,-3.69856,0.0001
42,1.43,-3.74014,0.0001
43,1.44,-3.63487,0.0001
44,1.45,-3.39133,0.0001
45,1.46,-3.02312,0.0001
46,1.47,-2.54821,0.0001
47,1.48,-1.98816,0.0001
48,1.49,-1.3672,0.0001
49,1.5,-0.711195,0.0001
50,1.51,-0.0466763,0.0001
51,1.52,0.60024,0.0001
52,1.53,1.20482,0.0001
53,1.54,1.7446,0.0001
54,1.55,2.20024,0.0001
55,1.56,2.55612,0.0001
56,1.57,2.80089,0.0001
57,1.58,2.92778,0.0001
58,1.59,2.93475,0.0001
59,1.6,2.82444,0.0001
60,1.61,2.60397,0.0001
61,1.62,2.28457,0.0001
62,1.63,1.88101,0.0001
63,1.64,1.41099,0.0001
64,1.65,0.894384,0.0001
65,1.66,0.35241,0.0001
66,1.67,-0.193194,0.0001
67,1.68,-0.721031,0.0001
68,1.69,-1.21085,0.0001
69,1.7,-1.64431,0.0001
70,1.71,-2.00563,0.0001
71,1.72,-2.28216,0.0001
72,1.73,-2.46476,0.0001
73,1.74,-2.54813,0.0001
74,1.75,-2.53092,0.0001
75,1.76,-2.41567,0.0001
76,1.77,-2.20866,0.0001
77,1.78,-1.91961,0.0001
78,1.79,-1.5612,0.0001
79,1.8,-1.14857,0.0001
80,1.81,-0.69865,0.0001
81,1.82,-0.229517,0.0001
82,1.83,0.240347,0.0001
83,1.84,0.692753,0.0001
84,1.85,1.1105,0.0001
85,1.86,1.47803,0.0001
86,1.87,1.78195,0.0001
87,1.88,2.01156,0.0001
88,1.89,2.15916,0.0001
89,1.9,2.22033,0.0001
90,1.91,2.19402,0.0001
91,1.92,2.08252,0.0001
92,1.93,1.89136,0.0001
93,1.94,1.62899,0.0001
94,1.95,1.30644,0.0001
95,1.96,0.936838,0.0001
96,1.97,0.534897,0.0001
97,1.98,0.116313,0.0001
98,1.99,-0.302844,0.0001
99,2,-0.706738,0.0001
100,2.01,-1.08037,0.0001
101,2.02,-1.41013,0.0001
102,2.03,-1.68428,0.0001
103,2.04,-1.89337,0.0001
104,2.05,-2.03057,0.0001
105,2.06,-2.09185,0.0001
106,2.07,-2.07612,0.0001
107,2.08,-1.98518,0.0001
108,2.09,-1.82364,0.0001
109,2.1,-1.59867,0.0001
110,2.11,-1.3197,0.0001
111,2.12,-0.998018,0.0001
112,2.13,-0.646294,0.0001
113,2.14,-0.278108,0.0001
114,2.15,0.0926029,0.0001
115,2.16,0.452066,0.0001
116,2.17,0.787196,0.0001
117,2.18,1.08607,0.0001
118,2.19,1.33838,0.0001
119,2.2,1.53575,0.0001
120,2.21,1.67207,0.0001
121,2.22,1.74365,0.0001
122,2.23,1.74931,0.0001
123,2.24,1.69042,0.0001
124,2.25,1.57077,0.0001
125,2.26,1.39638,0.0001
126,2.27,1.17524,0.0001
127,2.28,0.91697,0.0001
128,2.29,0.632431,0.0001
129,2.3,0.333265,0.0001
130,2.31,0.0314583,0.0001
131,2.32,-0.261132,0.0001
132,2.33,-0.533229,0.0001
133,2.34,-0.774555,0.0001
134,2.35,-0.976211,0.0001
135,2.36,-1.13099,0.0001
136,2.37,-1.23365,0.0001
137,2.38,-1.28102,0.0001
138,2.39,-1.27218,0.0001
139,2.4,-1.20838,0.0001
140,2.41,-1.09301,0.0001
141,2.42,-0.931392,0.0001
142,2.43,-0.7306,0.0001
143,2.44,-0.499125,0.0001
144,2.45,-0.246539,0.0001
145,2.46,0.0168835,0.0001
146,2.47,0.280571,0.0001
147,2.48,0.534065,0.0001
148,2.49,0.767412,0.0001
149,2.5,0.971545,0.0001
150,2.51,1.13861,0.0001
151,2.52,1.26224,0.0001
152,2.53,1.33782,0.0001
153,2.54,1.36256,0.0001
154,2.55,1.33567,0.0001
155,2.56,1.2583,0.0001
156,2.57,1.13347,0.0001
157,2.58,0.965971,0.0001
158,2.59,0.762144,0.0001
159,2.6,0.529606,0.0001
160,2.61,0.27696,0.0001
161,2.62,0.0134583,0.0001
162,2.63,-0.251355,0.0001
163,2.64,-0.508003,0.0001
164,2.65,-0.747432,0.0001
165,2.66,-0.961338,0.0001
166,2.67,-1.14247,0.0001
167,2.68,-1.28487,0.0001
168,2.69,-1.38411,0.0001
169,2.7,-1.43736,0.0001
170,2.71,-1.44356,0.0001
171,2.72,-1.40334,0.0001
172,2.73,-1.31903,0.0001
173,2.74,-1.1945,0.0001
174,2.75,-1.03502,0.0001
175,2.76,-0.846995,0.0001
176,2.77,-0.637748,0.0001
177,2.78,-0.4152,0.0001
178,2.79,-0.187567,0.0001
179,2.8,0.0369536,0.0001
180,2.81,0.25049,0.0001
181,2.82,0.445788,0.0001
182,2.83,0.616471,0.0001
183,2.84,0.757258,0.0001
184,2.85,0.864145,0.0001
185,2.86,0.934525,0.0001
186,2.87,0.967252,0.0001
187,2.88,0.962656,0.0001
188,2.89,0.922492,0.0001
189,2.9,0.849837,0.0001
190,2.91,0.748939,0.0001
191,2.92,0.625026,0.0001
192,2.93,0.484073,0.0001
193,2.94,0.33255,0.0001
194,2.95,0.177156,0.0001
195,2.96,0.0245448,0.0001
196,2.97,-0.118941,0.0001
197,2.98,-0.247515,0.0001
198,2.99,-0.356173,0.0001
199,3,-0.440875,0.0001
200,3.01,-0.498698,0.0001
201,3.02,-0.527926,0.0001
202,3.03,-0.528106,0.0001
203,3.04,-0.500042,0.0001
204,3.05,-0.445744,0.0001
205,3.06,-0.368327,0.0001
206,3.07,-0.271868,0.0001
207,3.08,-0.161225,0.0001
208,3.09,-0.0418298,0.0001
209,3.1,0.0805465,0.0001
210,3.11,0.200031,0.0001
211,3.12,0.310896,0.0001
212,3.13,0.407791,0.0001
213,3.14,0.485965,0.0001
214,3.15,0.541459,0.0001
215,3.16,0.571262,0.0001
216,3.17,0.573439,0.0001
217,3.18,0.547205,0.0001
218,3.19,0.492955,0.0001
219,3.2,0.412256,0.0001
220,3.21,0.307776,0.0001
221,3.22,0.18319,0.0001
222,3.23,0.0430273,0.0001
223,3.24,-0.107499,0.0001
224,3.25,-0.262696,0.0001
225,3.26,-0.416616,0.0001
226,3.27,-0.563279,0.0001
227,3.28,-0.69691,0.0001
228,3.29,-0.81216,0.0001
229,3.3,-0.904309,0.0001
230,3.31,-0.969448,0.0001
231,3.32,-1.00463,0.0001
232,3.33,-1.00798,0.0001
233,3.34,-0.978772,0.0001
234,3.35,-0.917444,0.0001
235,3.36,-0.825597,0.0001
236,3.37,-0.70593,0.0001
237,3.38,-0.562136,0.0001
238,3.39,-0.398768,0.0001
239,3.4,-0.221074,0.0001
240,3.41,-0.0348002,0.0001
241,3.42,0.154018,0.0001
242,3.43,0.339273,0.0001
243,3.44,0.515006,0.0001
244,3.45,0.675622,0.0001
245,3.46,0.816081,0.0001
246,3.47,0.932079,0.0001
247,3.48,1.02019,0.0001
248,3.49,1.07798,0.0001
249,3.5,1.10407,0.0001
250,3.51,1.09819,0.0001
251,3.52,1.06117,0.0001
252,3.53,0.994868,0.0001
253,3.54,0.902108,0.0001
254,3.55,0.786557,0.0001
255,3.56,0.652576,0.0001
256,3.57,0.505044,0.0001
257,3.58,0.349178,0.0001
258,3.59,0.190329,0.0001
259,3.6,0.0337889,0.0001
260,3.61,-0.115406,0.0001
261,3.62,-0.25265,0.0001
262,3.63,-0.373932,0.0001
263,3.64,-0.475965,0.0001
264,3.65,-0.556294,0.0001
265,3.66,-0.61336,0.0001
266,3.67,-0.64654,0.0001
267,3.68,-0.65614,0.0001
268,3.69,-0.643358,0.0001
269,3.7,-0.610213,0.0001
270,3.71,-0.559437,0.0001
271,3.72,-0.494354,0.0001
272,3.73,-0.418722,0.0001
273,3.74,-0.336578,0.0001
274,3.75,-0.252058,0.0001
275,3.76,-0.169233,0.0001
276,3.77,-0.0919358,0.0001
277,3.78,-0.0236118,0.0001
278,3.79,0.0328184,0.0001
279,3.8,0.0750699,0.0001
280,3.81,0.101578,0.0001
281,3.82,0.111553,0.0001
282,3.83,0.104998,0.0001
283,3.84,0.0826985,0.0001
284,3.85,0.0461807,0.0001
285,3.86,-0.00236638,0.0001
286,3.87,-0.0601896,0.0001
287,3.88,-0.124096,0.0001
288,3.89,-0.190592,0.0001
289,3.9,-0.256037,0.0001
290,3.91,-0.316801,0.0001
291,3.92,-0.369419,0.0001
292,3.93,-0.410744,0.0001
293,3.94,-0.438077,0.0001
294,3.95,-0.449292,0.0001
295,3.96,-0.442922,0.0001
296,3.97,-0.418232,0.0001
297,3.98,-0.375252,0.0001
298,3.99,-0.314789,0.0001

File: g_r.csv
,Q,F,dF
0,-7.781e-3,-7.126e-3,1e-7
1,1.15e-1,5.55e-3,1e-7
2,2.643e-1,-7.88e-4,1e-7
3,4.303e-1,3.344e-2,1e-7
4,6.128e-1,3.09e-2,0.0001
5,7.124e-1,4.358e-2,0.0001
6,9.115e-1,4.231e-2,0.0001
7,1.044e+0,3.09e-2,0.0001
8,1.111e+0,-3.248e-2,0.0001
9,1.177e+0,-2.614e-2,0.0001
10,1.21e+0,4.358e-2,0.0001
11,1.243e+0,1.196e-1,0.0001
12,1.277e+0,2.337e-1,0.0001
13,1.343e+0,4.302e-1,0.0001
14,1.409e+0,5.126e-1,0.0001
15,1.442e+0,4.872e-1,0.0001
16,1.476e+0,4.302e-1,0.0001
17,1.509e+0,3.478e-1,0.0001
18,1.542e+0,2.654e-1,0.0001
19,1.575e+0,1.767e-1,0.0001
20,1.608e+0,1.07e-1,0.0001
21,1.642e+0,6.259e-2,0.0001
22,1.691e+0,2.456e-2,0.0001
23,1.874e+0,1.569e-2,0.0001
24,2.007e+0,-7.126e-3,0.0001
25,2.123e+0,1.747e-3,0.0001
26,2.305e+0,3.09e-2,0.0001
27,2.471e+0,6.132e-2,0.0001
28,2.571e+0,4.358e-2,0.0001
29,2.627e+0,5.55e-3,0.0001
30,2.737e+0,5.55e-3,0.0001
31,2.77e+0,3.724e-2,0.0001
32,2.803e+0,8.16e-2,0.0001
33,2.836e+0,1.196e-1,0.0001
34,2.869e+0,1.45e-1,0.0001
35,3.002e+0,7.526e-2,0.0001
36,3.035e+0,3.09e-2,0.0001
37,3.069e+0,5.55e-3,0.0001
38,3.152e+0,-1.727e-2,0.0001
39,3.268e+0,5.55e-3,0.0001
40,3.334e+0,-7.126e-3,0.0001
41,3.483e+0,-7.88e-4,0.0001
42,3.616e+0,1.823e-2,0.0001
43,3.782e+0,1.823e-2,0.0001
44,3.865e+0,3.09e-2,0.0001
45,3.948e+0,1.823e-2,0.0001
46,4.048e+0,5.55e-3,0.0001
47,4.213e+0,-7.126e-3,0.0001
48,4.296e+0,-1.98e-2,0.0001
49,4.612e+0,-3.248e-2,0.0001
50,4.761e+0,-1.98e-2,0.0001
51,4.894e+0,-7.126e-3,0.0001
52,5.01e+0,5.55e-3,0.0001
53,5.126e+0,1.823e-2,0.0001
54,5.275e+0,3.09e-2,0.0001
55,5.524e+0,4.358e-2,0.0001
56,5.723e+0,4.358e-2,0.0001
57,5.856e+0,5.625e-2,0.0001
58,5.923e+0,6.893e-2,0.0001
59,6.105e+0,9.428e-2,0.0001
60,6.454e+0,9.047e-2,0.0001
61,6.57e+0,6.893e-2,0.0001
62,6.719e+0,5.625e-2,0.0001
63,6.902e+0,4.358e-2,0.0001
64,6.985e+0,3.09e-2,0.0001
65,7.051e+0,1.823e-2,0.0001
66,7.35e+0,1.823e-2,0.0001
67,7.615e+0,3.09e-2,0.0001
68,7.914e+0,1.823e-2,0.0001
69,8.179e+0,1.823e-2,0.0001
70,8.395e+0,3.09e-2,0.0001
71,8.611e+0,4.358e-2,0.0001
72,8.727e+0,5.625e-2,0.0001
73,8.992e+0,5.625e-2,0.0001
74,9.125e+0,4.358e-2,0.0001
75,9.407e+0,3.09e-2,0.0001
76,9.656e+0,3.09e-2,0.0001
77,9.789e+0,1.823e-2,0.0001
78,9.888e+0,5.55e-3,0.0001
79,1e+1,-7.126e-3,0.0001
80,1.012e+1,-1.98e-2,0.0001
81,1.035e+1,-1.98e-2,0.0001
82,1.049e+1,-7.88e-4,0.0001
83,1.068e+1,3.724e-2,0.0001
84,1.085e+1,6.893e-2,0.0001
85,1.143e+1,6.893e-2,0.0001
86,1.16e+1,5.625e-2,0.0001
87,1.168e+1,4.358e-2,0.0001
88,1.178e+1,3.09e-2,0.0001
89,1.188e+1,1.823e-2,0.0001
90,1.203e+1,5.55e-3,0.0001
91,1.231e+1,1.823e-2,0.0001
92,1.244e+1,3.09e-2,0.0001
93,1.271e+1,4.358e-2,0.0001
94,1.319e+1,3.09e-2,0.0001
95,1.347e+1,3.09e-2,0.0001
96,1.372e+1,1.823e-2,0.0001
97,1.402e+1,1.823e-2,0.0001
98,1.419e+1,3.09e-2,0.0001
99,1.437e+1,4.358e-2,0.0001
100,1.462e+1,5.625e-2,0.0001
101,1.488e+1,6.893e-2,0.0001
102,1.51e+1,5.625e-2,0.0001
103,1.525e+1,4.358e-2,0.0001
104,1.548e+1,3.09e-2,0.0001
105,1.571e+1,1.823e-2,0.0001
106,1.588e+1,5.55e-3,0.0001
107,1.618e+1,-7.126e-3,0.0001
108,1.646e+1,5.55e-3,0.0001
109,1.663e+1,1.823e-2,0.0001
110,1.677e+1,3.09e-2,0.0001
111,1.692e+1,4.358e-2,0.0001
112,1.714e+1,5.625e-2,0.0001
113,1.732e+1,6.893e-2,0.0001
114,1.762e+1,5.625e-2,0.0001
115,1.777e+1,4.358e-2,0.0001
116,1.82e+1,4.358e-2,0.0001
117,1.847e+1,3.09e-2,0.0001
118,1.896e+1,1.823e-2,0.0001
119,1.931e+1,1.823e-2,0.0001
120,1.953e+1,3.09e-2,0.0001
121,1.971e+1,4.358e-2,0.0001

File: T_of_r.csv
,r,T
0,-0.007781,0.00334564
1,0.115,-0.0488248
2,0.2643,-0.112927
3,0.4303,-0.177566
4,0.6128,-0.25354
5,0.7124,-0.290892
6,0.9115,-0.372684
7,1.044,-0.431945
8,1.111,-0.489728
9,1.177,-0.515635
10,1.21,-0.494076
11,1.243,-0.467209
12,1.277,-0.417782
13,1.343,-0.326707
14,1.409,-0.293195
15,1.442,-0.315699
16,1.476,-0.359061
17,1.509,-0.420174
18,1.542,-0.48361
19,1.575,-0.553603
20,1.608,-0.613052
21,1.642,-0.657147
22,1.691,-0.704213
23,1.874,-0.787519
24,2.007,-0.86296
25,2.123,-0.904795
26,2.305,-0.953672
27,2.471,-0.990262
28,2.571,-1.04981
29,2.627,-1.11533
30,2.737,-1.16203
31,2.77,-1.13856
32,2.803,-1.09904
33,2.836,-1.06597
34,2.869,-1.04726
35,3.002,-1.1852
36,3.035,-1.2557
37,3.069,-1.30299
38,3.152,-1.36893
39,3.268,-1.38747
40,3.334,-1.43354
41,3.483,-1.48818
42,3.616,-1.51565
43,3.782,-1.58522
44,3.865,-1.59911
45,3.948,-1.6548
46,4.048,-1.71863
47,4.213,-1.81149
48,4.296,-1.87042
49,4.612,-2.03297
50,4.761,-2.07287
51,4.894,-2.1043
52,5.01,-2.12706
53,5.126,-2.14856
54,5.275,-2.18248
55,5.524,-2.2556
56,5.723,-2.33686
57,5.856,-2.35949
58,5.923,-2.35442
59,6.105,-2.36069
60,6.454,-2.50614
61,6.57,-2.6116
62,6.719,-2.70721
63,6.902,-2.81827
64,6.985,-2.88998
65,7.051,-2.95543
66,7.35,-3.08075
67,7.615,-3.15064
68,7.914,-3.31715
69,8.179,-3.42823
70,8.395,-3.47335
71,8.611,-3.51611
72,8.727,-3.51626
73,8.992,-3.62304
74,9.125,-3.72599
75,9.407,-3.89206
76,9.656,-3.99508
77,9.789,-4.10306
78,9.888,-4.19808
79,10.0,-4.29975
80,10.12,-4.40611
81,10.35,-4.50625
82,10.49,-4.48205
83,10.68,-4.38984
84,10.85,-4.31292
85,11.43,-4.54348
86,11.6,-4.67385
87,11.68,-4.76926
88,11.78,-4.87386
89,11.88,-4.9795
90,12.03,-5.1075
91,12.31,-5.15974
92,12.44,-5.14693
93,12.71,-5.18984
94,13.19,-5.45724
95,13.47,-5.57309
96,13.72,-5.75074
97,14.02,-5.87648
98,14.19,-5.87098
99,14.37,-5.86766
100,14.62,-5.89066
101,14.88,-5.91487
102,15.1,-6.08406
103,15.25,-6.22699
104,15.48,-6.40471
105,15.71,-6.58484
106,15.88,-6.74207
107,16.18,-6.957
108,16.46,-6.98831
109,16.63,-6.97046
110,16.77,-6.93843
111,16.92,-6.9089
112,17.14,-6.90601
113,17.32,-6.88478
114,17.62,-7.09941
115,17.77,-7.25597
116,18.2,-7.43155
117,18.47,-7.64179
118,18.96,-7.94708
119,19.31,-8.09378
120,19.53,-8.08035
121,19.71,-8.04813