Folder: torchdisorder/data/xrd_measurements/Si

Note: README.md
# torchdisorder

Torch-based modeling for disordered materials using PyTorch autograd to match target RDFs from XRD or neutron diffraction.

## Features

- Differentiable radial distribution function (RDF) loss
- Automatic config management with Hydra
- Experiment tracking with Weights & Biases
- Compatible with CUDA/GPU acceleration

## Usage

Run an experiment:

```bash
python -m torchdisorder.cli
```

Override parameters:

```bash
python -m torchdisorder.cli experiment.n_steps=10000 optimizer.lr=5e-4
```


```
amorphgen/
│
├── src/
│   └── amorphgen/
│       ├── __init__.py
│       ├── cli.py               # hydra entrypoint
│       ├── data/
│       │   ├── target_rdf.py    # loads & interpolates experimental RDF
│       │   └── utils.py
│       ├── model/
│       │   ├── generator.py     # positions -> (torch.tensor) coords
│       │   ├── rdf.py           # differentiable RDF calculator
│       │   └── loss.py
│       ├── engine/
│       │   ├── trainer.py       # main optimisation loop
│       │   └── callbacks.py     # W&B + other hooks
│       └── viz/
│           └── plot_rdf.py
│
├── configs/                     # hydra default config tree
│   ├── config.yaml
│   ├── experiment/
│   ├── optimizer/
│   ├── system/
│   └── wandb/
│
├── tests/
│
├── pyproject.toml               # poetry / setuptools
└── README.md
```

File: annealed-J-of-R.dat
/* J(r) of annealed amorphous Si, sampled and smoothed
/* Column 1: r in Angstrom
/* Column 2: J(r) in atoms/Angstrom
              0              0
     0.03926991   0.0002869126
     0.07853982  6.184183e-005
      0.1178097   -0.001345166
      0.1570796   -0.001949179
      0.1963495  -0.0006053825
      0.2356195   0.0003409456
      0.2748893  -0.0004662484
      0.3141593 -6.538595e-005
      0.3534292    0.002993853
      0.3926991     0.00437297
       0.431969    0.001652494
      0.4712389  1.630127e-005
      0.5105088    0.002332136
      0.5497787    0.001932796
      0.5890486   -0.004454882
      0.6283185   -0.007563888
      0.6675884   -0.002387682
      0.7068583  7.827023e-005
      0.7461283   -0.005894413
      0.7853982   -0.006274525
       0.824668    0.005649541
       0.863938     0.01137972
      0.9032079     0.00156004
      0.9424778   -0.001776976
      0.9817477     0.01178397
       1.021018     0.01402606
       1.060287   -0.007602613
       1.099557    -0.01673626
       1.138827    0.003247034
       1.178097    0.007780461
       1.217367    -0.02219053
       1.256637     -0.0282592
       1.295907     0.01441819
       1.335177     0.02918673
       1.374447    -0.01924801
       1.413717    -0.03118601
       1.452987     0.04411025
       1.492257     0.06726337
       1.531526    -0.06720228
       1.570796     -0.2093522
       1.610066     -0.1773202
       1.649336    -0.04571121
       1.688606     0.04310873
       1.727876      0.1461861
       1.767146      0.2704672
       1.806416      0.1476485
       1.845686     -0.2458089
       1.884956     -0.2842093
       1.924225       0.420819
       1.963495       1.000819
       2.002765      0.3024261
       2.042035      -1.135696
       2.081305       -1.44927
       2.120575        -0.1353
       2.159845       1.281222
       2.199115       2.262234
       2.238385       5.174848
       2.277655        12.0418
       2.316925         20.174
       2.356194       23.62287
       2.395464        19.5043
       2.434734       11.07864
       2.474004       3.883579
       2.513274      0.4148395
       2.552544     -0.4704351
       2.591814      -0.539013
       2.631084     -0.3866233
       2.670354    -0.06073088
       2.709624      0.2297108
       2.748893      0.3546008
       2.788163      0.4022025
       2.827433      0.3796719
       2.866703      0.2288656
       2.905973      0.1085619
       2.945243      0.2296506
       2.984513      0.4819959
       3.023783      0.6100641
       3.063053      0.6450504
       3.102323      0.7884365
       3.141593       1.002853
       3.180863       1.107302
       3.220132       1.170037
       3.259402       1.437727
       3.298672        1.96697
       3.337942       2.664128
       3.377212        3.59342
       3.416482       4.912122
       3.455752       6.577044
       3.495022       8.415383
       3.534292       10.39719
       3.573562       12.54686
       3.612832       14.67987
       3.652102       16.52093
       3.691371       18.00487
       3.730641       19.19641
       3.769911       20.01955
       3.809181       20.35556
       3.848451       20.31263
       3.887721        20.0933
       3.926991       19.65437
       3.966261       18.78466
       4.005531       17.48002
       4.044801       15.98666
       4.084071       14.51812
        4.12334        13.1735
        4.16261       12.07909
        4.20188       11.34772
        4.24115       10.90907
        4.28042       10.59601
        4.31969       10.37904
        4.35896       10.32991
        4.39823       10.40513
         4.4375       10.46385
       4.476769       10.46104
       4.516039       10.45109
       4.555309       10.46075
       4.594579       10.52071
       4.633849       10.72801
       4.673119       11.08294
       4.712389       11.35229
       4.751659       11.30595
       4.790929       11.02781
       4.830199       10.80178
       4.869469       10.75585
       4.908739       10.80313
       4.948009       10.85758
       4.987278        10.9123
       5.026548       10.96904
       5.065818       11.07594
       5.105088       11.36945
       5.144358       11.90243
       5.183628       12.50468
       5.222898       12.98599
       5.262168       13.39345
       5.301437       13.89727
       5.340707       14.52861
       5.379977       15.22638
       5.419247       16.03714
       5.458517       17.04736
       5.497787       18.19885
       5.537057       19.38807
       5.576327       20.67129
       5.615597       22.14582
       5.654867       23.68367
       5.694137       24.99388
       5.733407        25.8987
       5.772676       26.36017
       5.811946       26.32013
       5.851216       25.74738
       5.890486       24.79523
       5.929756       23.69535
       5.969026       22.53691
       6.008296       21.34441
       6.047566       20.29341
       6.086836       19.60204
       6.126106       19.24969
       6.165376       19.04851
       6.204646       18.97656
       6.243916        19.2046
       6.283185       19.79933
       6.322455       20.63589
       6.361725        21.6192
       6.400995       22.76686
       6.440265       24.03385
       6.479535       25.25517
       6.518805       26.31186
       6.558074       27.19271
       6.597344       27.87072
       6.636614       28.29641
       6.675884       28.55391
       6.715154       28.85891
       6.754424       29.34069
       6.793694       29.94551
       6.832964       30.58699
       6.872234       31.26711
       6.911504        32.0052
       6.950774       32.74814
       6.990044       33.40033
       7.029314        33.8995
       7.068583       34.27472
       7.107853       34.67474
       7.147123       35.27826
       7.186393       36.08971
       7.225663       36.88068
       7.264933       37.42663
       7.304203       37.73751
       7.343473       37.95542
       7.382743       38.10949
       7.422013       38.11433
       7.461283       37.95922
       7.500553       37.75683
       7.539823       37.62297
       7.579093        37.6062
       7.618362       37.69723
       7.657632        37.8217
       7.696902        37.8788
       7.736172        37.8555
       7.775442       37.81198
       7.814712        37.6946
       7.853981       37.32874
       7.893251       36.72831
       7.932521       36.23563
       7.971791       36.14742
       8.011062       36.33194
       8.050331       36.44799
       8.089602       36.44486
       8.128871       36.58873
       8.168141       37.04139
       8.207411       37.67097
        8.24668         38.288
       8.285951       38.84551
        8.32522       39.37146
       8.364491       39.88976
        8.40376       40.45879
        8.44303       41.15118
         8.4823       41.95536
        8.52157       42.78428
        8.56084       43.56856
        8.60011       44.26122
        8.63938       44.81579
        8.67865       45.27732
       8.717919       45.81886
        8.75719       46.54522
       8.796459       47.33279
        8.83573       48.01198
       8.874999       48.61591
       8.914269       49.26589
       8.953539       49.90439
       8.992809       50.37672
       9.032079       50.72688
       9.071349       51.16043
       9.110619       51.71429
       9.149889       52.20323
       9.189158       52.52808
       9.228429       52.82336
       9.267698       53.24587
       9.306969        53.7984
       9.346238       54.40526
       9.385508       54.98482
       9.424778       55.40629
       9.464047       55.56788
       9.503318       55.59762
       9.542587       55.80899
       9.581858       56.35217
       9.621127       57.02665
       9.660398       57.53172
       9.699667       57.81536
       9.738937       58.10424
       9.778207       58.65466
       9.817477       59.52032
       9.856747       60.50778
       9.896017       61.34258
       9.935287       61.93991