Folder: torchdisorder/data-release/xrd_measurements/Fe2O3

Note: README.md
# torchdisorder

Torch-based modeling for disordered materials using PyTorch autograd to match target RDFs from XRD or neutron diffraction.

## Features

- Differentiable radial distribution function (RDF) loss
- Automatic config management with Hydra
- Experiment tracking with Weights & Biases
- Compatible with CUDA/GPU acceleration

## Usage

Run an experiment:

```bash
python -m torchdisorder.cli
```

Override parameters:

```bash
python -m torchdisorder.cli experiment.n_steps=10000 optimizer.lr=5e-4
```


```
amorphgen/
│
├── src/
│   └── amorphgen/
│       ├── __init__.py
│       ├── cli.py               # hydra entrypoint
│       ├── data/
│       │   ├── target_rdf.py    # loads & interpolates experimental RDF
│       │   └── utils.py
│       ├── model/
│       │   ├── generator.py     # positions -> (torch.tensor) coords
│       │   ├── rdf.py           # differentiable RDF calculator
│       │   └── loss.py
│       ├── engine/
│       │   ├── trainer.py       # main optimisation loop
│       │   └── callbacks.py     # W&B + other hooks
│       └── viz/
│           └── plot_rdf.py
│
├── configs/                     # hydra default config tree
│   ├── config.yaml
│   ├── experiment/
│   ├── optimizer/
│   ├── system/
│   └── wandb/
│
├── tests/
│
├── pyproject.toml               # poetry / setuptools
└── README.md
```

File: F_of_Q.csv
,Q,F,dF
0,0.0003962,-0.09093,1e-7
1,0.0635,-0.1358,1e-7
2,0.1031,-0.1665,1e-7
3,0.1166,-0.2308,1e-7
4,0.1422,-0.2595,1e-7
5,0.1596,-0.3085,0.0001
6,0.1802,-0.3554,0.0001
7,0.1914,-0.4106,0.0001
8,0.2087,-0.4571,0.0001
9,0.2204,-0.5028,0.0001
10,0.2562,-0.5572,0.0001
11,0.3098,-0.7208,0.0001
12,0.374,-0.7112,0.0001
13,0.3935,-0.6622,0.0001
14,0.4069,-0.6149,0.0001
15,0.4187,-0.5671,0.0001
16,0.4304,-0.5069,0.0001
17,0.441,-0.4384,0.0001
18,0.4533,-0.3608,0.0001
19,0.4661,-0.2753,0.0001
20,0.4784,-0.1839,0.0001
21,0.4896,-0.08843,0.0001
22,0.5024,0.008305,0.0001
23,0.513,0.1096,0.0001
24,0.5253,0.2088,0.0001
25,0.5371,0.306,0.0001
26,0.5499,0.3998,0.0001
27,0.5616,0.4883,0.0001
28,0.5667,0.5954,0.0001
29,0.575,0.5676,0.0001
30,0.5806,0.666,0.0001
31,0.5873,0.6386,0.0001
32,0.5996,0.7735,0.0001
33,0.6002,0.7079,0.0001
34,0.6002,0.7382,0.0001
35,0.6365,0.8296,0.0001
36,0.6716,0.8391,0.0001
37,0.6823,0.7868,0.0001
38,0.7001,0.7237,0.0001
39,0.7107,0.6805,0.0001
40,0.7191,0.6294,0.0001
41,0.7286,0.5331,0.0001
42,0.7353,0.5605,0.0001
43,0.7493,0.4825,0.0001
44,0.7621,0.3986,0.0001
45,0.7794,0.3155,0.0001
46,0.7967,0.2234,0.0001
47,0.8113,0.1366,0.0001
48,0.8185,-0.125,0.0001
49,0.8414,-0.1968,0.0001
50,0.8515,-0.2645,0.0001
51,0.8654,-0.3309,0.0001
52,0.8822,-0.3857,0.0001
53,0.8894,-0.4306,0.0001
54,0.9079,-0.4746,0.0001
55,0.9341,-0.5111,0.0001
56,0.9721,-0.5115,0.0001
57,1.041,-0.497,0.0001
58,1.087,-0.4509,0.0001
59,1.166,-0.4368,0.0001
60,1.223,-0.4613,0.0001
61,1.265,-0.4804,0.0001
62,1.317,-0.5123,0.0001
63,1.376,-0.5194,0.0001
64,1.442,-0.5269,0.0001
65,1.527,-0.5518,0.0001
66,1.579,-0.5833,0.0001
67,1.633,-0.551,0.0001
68,1.644,-0.4937,0.0001
69,1.673,-0.4368,0.0001
70,1.686,-0.3737,0.0001
71,1.708,-0.3342,0.0001
72,1.728,-0.2873,0.0001
73,1.746,-0.2391,0.0001
74,1.757,-0.1765,0.0001
75,1.779,-0.1221,0.0001
76,1.825,0.004568,0.0001
77,1.831,-0.06062,0.0001
78,1.856,0.0465,0.0001
79,1.898,0.06602,0.0001
80,2.077,-0.1349,0.0001
81,2.102,-0.1544,0.0001
82,2.138,-0.1607,0.0001
83,2.188,-0.1171,0.0001
84,2.225,-0.06186,0.0001
85,2.253,-0.008718,0.0001
86,2.278,0.0382,0.0001
87,2.301,0.08304,0.0001
88,2.329,0.1316,0.0001
89,2.367,0.1789,0.0001
90,2.382,0.213,0.0001
91,2.42,0.2321,0.0001
92,2.473,0.1935,0.0001
93,2.51,0.1096,0.0001
94,2.516,0.1329,0.0001
95,2.537,0.04609,0.0001
96,2.546,-0.01412,0.0001
97,2.579,-0.04525,0.0001
98,2.601,-0.09259,0.0001
99,2.617,-0.1378,0.0001
100,2.64,-0.1831,0.0001
101,2.666,-0.2292,0.0001
102,2.692,-0.2757,0.0001
103,2.722,-0.3168,0.0001
104,2.763,-0.3554,0.0001
105,2.878,-0.3903,0.0001
106,2.94,-0.3969,0.0001
107,3.001,-0.3978,0.0001
108,3.063,-0.4011,0.0001
109,3.124,-0.4011,0.0001
110,3.186,-0.3994,0.0001
111,3.247,-0.3973,0.0001
112,3.302,-0.4065,0.0001
113,3.375,-0.3695,0.0001
114,3.429,-0.3413,0.0001
115,3.481,-0.2877,0.0001
116,3.522,-0.2342,0.0001
117,3.557,-0.1819,0.0001
118,3.591,-0.1324,0.0001
119,3.625,-0.08719,0.0001
120,3.664,-0.04816,0.0001
121,3.717,-0.01993,0.0001
122,3.777,-0.01204,0.0001
123,3.838,-0.01744,0.0001
124,3.902,-0.01827,0.0001
125,3.964,0.005814,0.0001
126,4.025,0.03571,0.0001
127,4.085,0.05564,0.0001
128,4.145,0.05854,0.0001
129,4.204,0.04318,0.0001
130,4.263,0.01578,0.0001
131,4.328,-0.03363,0.0001
132,4.385,-0.03861,0.0001
133,4.447,-0.04525,0.0001
134,4.509,-0.04899,0.0001
135,4.569,-0.05563,0.0001
136,4.63,-0.07183,0.0001
137,4.692,-0.0876,0.0001
138,4.756,-0.09757,0.0001
139,4.818,-0.09134,0.0001
140,4.879,-0.07972,0.0001
141,5.0,-0.06975,0.0001
142,5.061,-0.07556,0.0001
143,5.122,-0.0876,0.0001
144,5.183,-0.1005,0.0001
145,5.238,-0.1084,0.0001
146,5.34,-0.1569,0.0001
147,5.399,-0.174,0.0001
148,5.463,-0.1972,0.0001
149,5.526,-0.2101,0.0001
150,5.588,-0.208,0.0001
151,5.648,-0.2018,0.0001
152,5.71,-0.2018,0.0001
153,5.771,-0.2026,0.0001
154,5.833,-0.2051,0.0001
155,5.895,-0.1968,0.0001
156,6.018,-0.1524,0.0001
157,6.136,-0.1059,0.0001
158,6.191,-0.1133,0.0001
159,6.239,-0.1221,0.0001
160,6.296,-0.1495,0.0001
161,6.357,-0.1648,0.0001
162,6.419,-0.1843,0.0001
163,6.479,-0.2014,0.0001
164,6.54,-0.2176,0.0001
165,6.602,-0.2342,0.0001
166,6.64,-0.2445,0.0001
167,6.735,-0.2666,0.0001
168,6.791,-0.2628,0.0001
169,6.85,-0.2553,0.0001
170,6.911,-0.2504,0.0001
171,6.971,-0.2454,0.0001
172,7.022,-0.2537,0.0001

File: F_of_Q_real.csv
,Q,F,dF
0,1.01,0.81674,1e-7
3,1.04,0.913836,1e-7
6,1.07,0.940976,1e-7
9,1.1,0.911266,0.0001
12,1.13,0.837329,0.0001
15,1.16,0.731065,0.0001
18,1.19,0.603451,0.0001
21,1.22,0.464371,0.0001
24,1.25,0.322494,0.0001
27,1.28,0.185192,0.0001
30,1.31,0.0584876,0.0001
33,1.34,-0.052943,0.0001
36,1.37,-0.145746,0.0001
39,1.4,-0.217824,0.0001
42,1.43,-0.268249,0.0001
45,1.46,-0.297142,0.0001
48,1.49,-0.305543,0.0001
51,1.52,-0.295262,0.0001
54,1.55,-0.268722,0.0001
57,1.58,-0.228801,0.0001
60,1.61,-0.178672,0.0001
63,1.64,-0.121653,0.0001
66,1.67,-0.0610623,0.0001
69,1.7,-9.39217e-05,0.0001
72,1.73,0.0582972,0.0001
75,1.76,0.111487,0.0001
78,1.79,0.157256,0.0001
81,1.82,0.19384,0.0001
84,1.85,0.219966,0.0001
87,1.88,0.234859,0.0001
90,1.91,0.238237,0.0001
93,1.94,0.230288,0.0001
96,1.97,0.211629,0.0001
99,2,0.183254,0.0001
102,2.03,0.146474,0.0001
105,2.06,0.10285,0.0001
108,2.09,0.0541176,0.0001
111,2.12,0.00211649,0.0001
114,2.15,-0.0512824,0.0001
117,2.18,-0.104244,0.0001
120,2.21,-0.155033,0.0001
123,2.24,-0.202064,0.0001
126,2.27,-0.243951,0.0001
129,2.3,-0.27954,0.0001
132,2.33,-0.307933,0.0001
135,2.36,-0.328504,0.0001
138,2.39,-0.340901,0.0001
141,2.42,-0.345039,0.0001
144,2.45,-0.341086,0.0001
147,2.48,-0.32944,0.0001
150,2.51,-0.310699,0.0001
153,2.54,-0.285629,0.0001
156,2.57,-0.255122,0.0001
159,2.6,-0.220163,0.0001
162,2.63,-0.181788,0.0001
165,2.66,-0.141044,0.0001
168,2.69,-0.0989592,0.0001
171,2.72,-0.0565055,0.0001
174,2.75,-0.0145756,0.0001
177,2.78,0.0260402,0.0001
180,2.81,0.0646706,0.0001
183,2.84,0.100773,0.0001
186,2.87,0.133939,0.0001
189,2.9,0.163893,0.0001
192,2.93,0.190486,0.0001
195,2.96,0.213687,0.0001
198,2.99,0.233569,0.0001
201,3.02,0.25029,0.0001
204,3.05,0.264081,0.0001
207,3.08,0.275217,0.0001
210,3.11,0.284007,0.0001
213,3.14,0.29077,0.0001
216,3.17,0.295818,0.0001
219,3.2,0.299444,0.0001
222,3.23,0.301905,0.0001
225,3.26,0.303415,0.0001
228,3.29,0.304139,0.0001
231,3.32,0.304186,0.0001
234,3.35,0.303613,0.0001
237,3.38,0.302423,0.0001
240,3.41,0.300575,0.0001
243,3.44,0.297989,0.0001
246,3.47,0.294552,0.0001
249,3.5,0.290133,0.0001
252,3.53,0.284594,0.0001
255,3.56,0.277795,0.0001
258,3.59,0.269611,0.0001
261,3.62,0.259938,0.0001
264,3.65,0.248703,0.0001
267,3.68,0.23587,0.0001
270,3.71,0.221444,0.0001
273,3.74,0.205476,0.0001
276,3.77,0.188061,0.0001
279,3.8,0.169338,0.0001
282,3.83,0.149487,0.0001
285,3.86,0.128725,0.0001
288,3.89,0.107297,0.0001
291,3.92,0.085469,0.0001
294,3.95,0.0635219,0.0001
297,3.98,0.0417407,0.0001
300,4.01,0.0204065,0.0001
303,4.04,-0.00021195,0.0001
306,4.07,-0.0198661,0.0001
309,4.1,-0.0383341,0.0001
312,4.13,-0.0554269,0.0001
315,4.16,-0.0709917,0.0001
318,4.19,-0.0849153,0.0001
321,4.22,-0.0971249,0.0001
324,4.25,-0.107588,0.0001
327,4.28,-0.11631,0.0001
330,4.31,-0.123333,0.0001
333,4.34,-0.12873,0.0001
336,4.37,-0.132599,0.0001
339,4.4,-0.135059,0.0001
342,4.43,-0.136246,0.0001
345,4.46,-0.136301,0.0001
348,4.49,-0.135372,0.0001
351,4.52,-0.133602,0.0001
354,4.55,-0.131126,0.0001
357,4.58,-0.128069,0.0001
360,4.61,-0.124541,0.0001
363,4.64,-0.120637,0.0001
366,4.67,-0.116431,0.0001
369,4.7,-0.111983,0.0001
372,4.73,-0.107334,0.0001
375,4.76,-0.102513,0.0001
378,4.79,-0.0975328,0.0001
381,4.82,-0.0924003,0.0001
384,4.85,-0.0871151,0.0001
387,4.88,-0.0816743,0.0001
390,4.91,-0.0760767,0.0001
393,4.94,-0.070325,0.0001
396,4.97,-0.0644293,0.0001
399,5,-0.0584093,0.0001
402,5.03,-0.0522956,0.0001
405,5.06,-0.0461309,0.0001
408,5.09,-0.0399699,0.0001
411,5.12,-0.0338787,0.0001
414,5.15,-0.0279332,0.0001
417,5.18,-0.022217,0.0001
420,5.21,-0.0168187,0.0001
423,5.24,-0.0118284,0.0001
426,5.27,-0.00733464,0.0001
429,5.3,-0.0034206,0.0001
432,5.33,-0.000160379,0.0001
435,5.36,0.00238426,0.0001
438,5.39,0.00416689,0.0001
441,5.42,0.00515897,0.0001
444,5.45,0.00535166,0.0001
447,5.48,0.00475695,0.0001
450,5.51,0.00340806,0.0001
453,5.54,0.00135888,0.0001
456,5.57,-0.00131724,0.0001
459,5.6,-0.00452959,0.0001
462,5.63,-0.00817278,0.0001
465,5.66,-0.0121301,0.0001
468,5.69,-0.0162774,0.0001
471,5.72,-0.020487,0.0001
474,5.75,-0.024632,0.0001
477,5.78,-0.0285905,0.0001
480,5.81,-0.0322498,0.0001
483,5.84,-0.03551,0.0001
486,5.87,-0.0382872,0.0001
489,5.9,-0.040516,0.0001
492,5.93,-0.0421518,0.0001
495,5.96,-0.0431718,0.0001
498,5.99,-0.0435752,0.0001
501,6.02,-0.043383,0.0001
504,6.05,-0.0426365,0.0001
507,6.08,-0.0413956,0.0001
510,6.11,-0.0397361,0.0001
513,6.14,-0.0377465,0.0001
516,6.17,-0.0355242,0.0001
519,6.2,-0.0331723,0.0001
522,6.23,-0.030795,0.0001
525,6.26,-0.0284939,0.0001
528,6.29,-0.0263646,0.0001
531,6.32,-0.0244927,0.0001
534,6.35,-0.0229512,0.0001
537,6.38,-0.0217979,0.0001
540,6.41,-0.0210738,0.0001
543,6.44,-0.0208019,0.0001
546,6.47,-0.0209867,0.0001
549,6.5,-0.0216144,0.0001
552,6.53,-0.0226544,0.0001
555,6.56,-0.0240602,0.0001
558,6.59,-0.0257722,0.0001
561,6.62,-0.0277199,0.0001
564,6.65,-0.029825,0.0001
567,6.68,-0.0320044,0.0001
570,6.71,-0.0341738,0.0001
573,6.74,-0.0362506,0.0001
576,6.77,-0.0381568,0.0001
579,6.8,-0.0398224,0.0001
582,6.83,-0.0411869,0.0001
585,6.86,-0.0422021,0.0001
588,6.89,-0.042833,0.0001
591,6.92,-0.0430586,0.0001
594,6.95,-0.0428725,0.0001
597,6.98,-0.0422823,0.0001
600,7.01,-0.0413092,0.0001
603,7.04,-0.0399862,0.0001
606,7.07,-0.0383565,0.0001
609,7.1,-0.0364718,0.0001
612,7.13,-0.0343894,0.0001
615,7.16,-0.0321704,0.0001
618,7.19,-0.0298765,0.0001
621,7.22,-0.0275684,0.0001
624,7.25,-0.0253028,0.0001
627,7.28,-0.0231307,0.0001
630,7.31,-0.0210958,0.0001
633,7.34,-0.019233,0.0001
636,7.37,-0.0175676,0.0001
639,7.4,-0.0161148,0.0001
642,7.43,-0.0148795,0.0001
645,7.46,-0.0138569,0.0001
648,7.49,-0.0130332,0.0001
651,7.52,-0.0123869,0.0001
654,7.55,-0.0118899,0.0001
657,7.58,-0.0115094,0.0001
660,7.61,-0.0112093,0.0001
663,7.64,-0.0109526,0.0001
666,7.67,-0.0107028,0.0001
669,7.7,-0.0104256,0.0001
672,7.73,-0.0100905,0.0001
675,7.76,-0.00967235,0.0001
678,7.79,-0.00915197,0.0001
681,7.82,-0.00851715,0.0001
684,7.85,-0.00776294,0.0001
687,7.88,-0.00689171,0.0001
690,7.91,-0.00591289,0.0001
693,7.94,-0.00484235,0.0001
696,7.97,-0.00370155,0.0001
699,8,-0.00251647,0.0001
702,8.03,-0.00131634,0.0001
705,8.06,-0.000132248,0.0001
708,8.09,0.00100421,0.0001
711,8.12,0.00206239,0.0001
714,8.15,0.00301388,0.0001
717,8.18,0.00383373,0.0001
720,8.21,0.00450139,0.0001
723,8.24,0.00500155,0.0001
726,8.27,0.00532465,0.0001
729,8.3,0.00546713,0.0001
732,8.33,0.00543143,0.0001
735,8.36,0.00522574,0.0001
738,8.39,0.00486344,0.0001
741,8.42,0.00436237,0.0001
744,8.45,0.00374394,0.0001
747,8.48,0.00303206,0.0001
750,8.51,0.00225204,0.0001
753,8.54,0.00142937,0.0001
756,8.57,0.000588645,0.0001
759,8.6,-0.000247525,0.0001
762,8.63,-0.00105946,0.0001
765,8.66,-0.00183116,0.0001
768,8.69,-0.00255096,0.0001
771,8.72,-0.00321179,0.0001
774,8.75,-0.00381141,0.0001
777,8.78,-0.00435226,0.0001
780,8.81,-0.00484113,0.0001
783,8.84,-0.00528866,0.0001
786,8.87,-0.0057086,0.0001
789,8.9,-0.00611691,0.0001
792,8.93,-0.00653084,0.0001
795,8.96,-0.00696786,0.0001
798,8.99,-0.00744459,0.0001
799,9,-0.00761495,0.0001

File: T_of_r.csv
,r,T
0,0.04361,-0.0577121
2,0.1063,-0.146479
4,0.1457,-0.206223
6,0.1801,-0.257284
8,0.1873,-0.273551
10,0.2145,-0.32499
12,0.2289,-0.358163
14,0.2505,-0.443257
16,0.2622,-0.478566
18,0.2788,-0.488406
20,0.2916,-0.52853
22,0.3277,-0.649483
24,0.3515,-0.720132
26,0.4342,-0.876861
28,0.4591,-0.873928
30,0.4813,-0.840743
32,0.5063,-0.783759
34,0.5296,-0.699249
36,0.5529,-0.596634
38,0.5768,-0.484413
40,0.6012,-0.371387
42,0.6145,-0.320206
44,0.6267,-0.272327
46,0.6395,-0.22387
48,0.6755,-0.13635
50,0.721,-0.183149
52,0.7493,-0.287333
54,0.7671,-0.431888
56,0.7809,-0.514758
58,0.792,-0.602201
60,0.8092,-0.698822
62,0.8175,-0.676993
64,0.8342,-1.05838
66,0.8419,-0.908494
68,0.8564,-1.16882
70,0.8791,-1.27674
72,0.8891,-1.36463
74,0.903,-1.45905
76,0.9196,-1.5473
78,0.9268,-1.61003
80,0.9451,-1.6925
82,0.9612,-1.64741
84,0.9745,-1.71902
86,1.012,-1.89261
88,1.087,-1.91085
90,1.139,-1.95103
92,1.202,-2.09718
94,1.258,-2.23246
96,1.3,-2.33726
98,1.352,-2.48332
100,1.411,-2.55746
102,1.476,-2.73734
104,1.56,-2.94047
106,1.619,-3.04754
108,1.676,-3.04043
110,1.713,-3.11528
112,1.732,-3.06053
114,1.744,-2.9899
116,1.771,-2.90084
118,1.788,-2.83824
120,1.807,-2.70035
122,1.823,-2.62471
124,1.838,-2.56901
126,1.857,-2.24144
128,1.885,-2.31147
130,1.929,-2.18393
132,1.981,-2.4332
134,2.015,-2.36284
136,2.034,-2.47155
138,2.081,-2.75604
140,2.131,-2.98504
142,2.18,-2.95111
144,2.22,-2.85478
146,2.253,-2.90177
148,2.281,-2.79014
150,2.307,-2.69006
152,2.33,-2.41746
154,2.363,-2.32986
156,2.409,-2.29593
158,2.464,-2.41833
160,2.509,-2.6148
162,2.537,-2.73767
164,2.563,-2.96395
166,2.598,-3.05567
168,2.605,-3.30242
170,2.633,-3.30461
172,2.655,-3.48668
174,2.672,-3.64026
176,2.694,-3.81866
178,2.721,-4.02077
180,2.748,-4.39295
182,2.788,-4.58807
184,2.845,-4.82994
186,2.905,-4.99944
188,2.967,-5.12856
190,3.027,-5.23559
192,3.086,-5.25
194,3.147,-5.45734
196,3.209,-5.45299
198,3.269,-5.54658
200,3.363,-5.77248
202,3.431,-5.77461
204,3.49,-5.6812
206,3.536,-5.53455
208,3.574,-5.37708
210,3.607,-5.20382
212,3.639,-5.04417
214,3.673,-4.88674
216,3.716,-4.75036
218,3.796,-4.65867
220,3.856,-4.75764
222,3.896,-4.95288
224,3.962,-4.95058
226,4.022,-4.88516
228,4.08,-4.82146
230,4.161,-4.7488
232,4.219,-4.89393
234,4.278,-5.10519
236,4.325,-5.24225
238,4.4,-5.54238
240,4.461,-5.65532
242,4.522,-5.75327
244,4.582,-5.86669
246,4.643,-6.03636
248,4.705,-6.20741
250,4.767,-6.49443
252,4.812,-6.53345
254,4.875,-6.55244
256,4.942,-6.58262
258,5.011,-6.50216
260,5.071,-6.61592
262,5.132,-6.77076
264,5.193,-6.9327
266,5.247,-7.055
268,5.348,-7.50761
270,5.407,-7.70248
272,5.47,-7.94691
274,5.533,-8.12543
276,5.583,-8.36831
278,5.65,-8.42053
280,5.716,-8.33635
282,5.776,-8.42949
284,5.838,-8.72135
286,5.882,-8.75697
288,5.945,-8.71815
290,6.001,-8.65179
292,6.061,-8.57281
294,6.118,-8.52069
296,6.194,-8.36606
298,6.242,-8.49709
300,6.298,-8.78366
302,6.359,-8.9881
304,6.42,-9.22692
306,6.48,-9.44742
308,6.541,-9.66552
310,6.602,-9.88924
312,6.656,-9.85898
314,6.734,-10.3521
316,6.844,-10.653
318,6.904,-10.7085
320,6.968,-10.7687
322,7.019,-10.6807