Folder: torchdisorder/data-release/xrd_measurements/GeO2

Note: README.md
# torchdisorder

Torch-based modeling for disordered materials using PyTorch autograd to match target RDFs from XRD or neutron diffraction.

## Features

- Differentiable radial distribution function (RDF) loss
- Automatic config management with Hydra
- Experiment tracking with Weights & Biases
- Compatible with CUDA/GPU acceleration

## Usage

Run an experiment:

```bash
python -m torchdisorder.cli
```

Override parameters:

```bash
python -m torchdisorder.cli experiment.n_steps=10000 optimizer.lr=5e-4
```


```
amorphgen/
│
├── src/
│   └── amorphgen/
│       ├── __init__.py
│       ├── cli.py               # hydra entrypoint
│       ├── data/
│       │   ├── target_rdf.py    # loads & interpolates experimental RDF
│       │   └── utils.py
│       ├── model/
│       │   ├── generator.py     # positions -> (torch.tensor) coords
│       │   ├── rdf.py           # differentiable RDF calculator
│       │   └── loss.py
│       ├── engine/
│       │   ├── trainer.py       # main optimisation loop
│       │   └── callbacks.py     # W&B + other hooks
│       └── viz/
│           └── plot_rdf.py
│
├── configs/                     # hydra default config tree
│   ├── config.yaml
│   ├── experiment/
│   ├── optimizer/
│   ├── system/
│   └── wandb/
│
├── tests/
│
├── pyproject.toml               # poetry / setuptools
└── README.md
```

File: I_Q
 IOP Conf. Series 107(1990)193
 Fig 8
 Q, i(Q), E(Q)
  0.400000E-01 -0.404879E+00  0.000000E+00
  0.280000E+00 -0.405327E+00  0.757398E-03
  0.520000E+00 -0.387066E+00  0.676990E-03
  0.760000E+00 -0.355431E+00  0.980540E-03
  0.100000E+01 -0.299441E+00  0.133342E-02
  0.124000E+01 -0.130975E+00  0.686019E-03
  0.148000E+01  0.133459E+00  0.105916E-02
  0.172000E+01  0.220808E-01  0.609623E-03
  0.196000E+01 -0.109213E+00  0.550168E-03
  0.220000E+01 -0.147818E+00  0.549922E-03
  0.244000E+01 -0.135613E+00  0.593885E-03
  0.268000E+01 -0.121105E+00  0.631158E-03
  0.292000E+01 -0.150460E+00  0.645244E-03
  0.316000E+01 -0.158539E+00  0.563650E-03
  0.340000E+01 -0.141025E+00  0.592995E-03
  0.364000E+01 -0.996037E-01  0.641793E-03
  0.388000E+01 -0.304680E-01  0.716814E-03
  0.412000E+01  0.744939E-01  0.818311E-03
  0.436000E+01  0.169821E+00  0.917328E-03
  0.460000E+01  0.203455E+00  0.983219E-03
  0.484000E+01  0.195968E+00  0.101690E-02
  0.508000E+01  0.116729E+00  0.996989E-03
  0.532000E+01 -0.316073E-01  0.908575E-03
  0.556000E+01 -0.107705E+00  0.881935E-03
  0.580000E+01 -0.119285E+00  0.913482E-03
  0.604000E+01 -0.109274E+00  0.960372E-03
  0.628000E+01 -0.103356E+00  0.995502E-03
  0.652000E+01 -0.942339E-01  0.104669E-02
  0.675999E+01 -0.680575E-01  0.110030E-02
  0.699999E+01 -0.185475E-01  0.118414E-02
  0.723999E+01  0.368731E-01  0.128458E-02
  0.747999E+01  0.660879E-01  0.134627E-02
  0.771999E+01  0.569126E-01  0.135988E-02
  0.795999E+01  0.396249E-01  0.137515E-02
  0.819999E+01  0.359730E-01  0.139496E-02
  0.843999E+01  0.419106E-01  0.142643E-02
  0.867999E+01  0.390620E-01  0.144970E-02
  0.891999E+01  0.224107E-01  0.145986E-02
  0.915999E+01 -0.744822E-02  0.144785E-02
  0.939999E+01 -0.382274E-01  0.142528E-02
  0.963999E+01 -0.588873E-01  0.142425E-02
  0.987999E+01 -0.625642E-01  0.144192E-02
  0.101200E+02 -0.533717E-01  0.147933E-02
  0.103600E+02 -0.440886E-01  0.150867E-02
  0.106000E+02 -0.317008E-01  0.155117E-02
  0.108400E+02 -0.165404E-01  0.160493E-02
  0.110800E+02  0.642100E-02  0.165161E-02
  0.113200E+02  0.365061E-01  0.171095E-02
  0.115600E+02  0.618700E-01  0.177986E-02
  0.118000E+02  0.621936E-01  0.181686E-02
  0.120400E+02  0.477344E-01  0.180292E-02
  0.122800E+02  0.204792E-01  0.180763E-02
  0.125200E+02 -0.372933E-02  0.177251E-02
  0.127600E+02 -0.221402E-01  0.177747E-02
  0.130000E+02 -0.380442E-01  0.176796E-02
  0.132400E+02 -0.436642E-01  0.179281E-02
  0.134800E+02 -0.435167E-01  0.182127E-02
  0.137200E+02 -0.350867E-01  0.184799E-02
  0.139600E+02 -0.206521E-01  0.189535E-02
  0.142000E+02 -0.553000E-02  0.192213E-02
  0.144400E+02  0.358399E-02  0.200021E-02
  0.146800E+02  0.112375E-01  0.203681E-02
  0.149200E+02  0.135338E-01  0.205966E-02
  0.151600E+02  0.198666E-01  0.209654E-02
  0.154000E+02  0.247476E-01  0.215878E-02
  0.156400E+02  0.277586E-01  0.219133E-02
  0.158800E+02  0.233555E-01  0.220955E-02
  0.161200E+02  0.123300E-01  0.221302E-02
  0.163600E+02 -0.190151E-03  0.113482E-02
  0.166000E+02 -0.160834E-01  0.112592E-02
  0.168400E+02 -0.256009E-01  0.112377E-02
  0.170800E+02 -0.302891E-01  0.113151E-02
  0.173200E+02 -0.278463E-01  0.114061E-02
  0.175600E+02 -0.195951E-01  0.115874E-02
  0.178000E+02 -0.774246E-02  0.118081E-02
  0.180400E+02  0.774339E-02  0.121211E-02
  0.182800E+02  0.191431E-01  0.123613E-02
  0.185200E+02  0.258146E-01  0.125774E-02
  0.187600E+02  0.277194E-01  0.127065E-02
  0.190001E+02  0.239968E-01  0.127630E-02
  0.192401E+02  0.178754E-01  0.127950E-02
  0.194801E+02  0.113747E-01  0.127977E-02
  0.197201E+02  0.548417E-02  0.128176E-02
  0.199601E+02  0.655343E-04  0.128840E-02
  0.202001E+02 -0.730318E-02  0.129387E-02
  0.204401E+02 -0.144452E-01  0.129696E-02
  0.206801E+02 -0.173986E-01  0.130091E-02
  0.209201E+02 -0.169159E-01  0.131948E-02
  0.211601E+02 -0.133672E-01  0.133100E-02
  0.214001E+02 -0.680896E-02  0.135535E-02
  0.216401E+02  0.160955E-02  0.138451E-02
  0.218801E+02  0.102742E-01  0.141005E-02
  0.221201E+02  0.173938E-01  0.143741E-02
  0.223601E+02  0.213983E-01  0.144860E-02
  0.226001E+02  0.216881E-01  0.146349E-02
  0.228401E+02  0.188803E-01  0.147768E-02
  0.230801E+02  0.132771E-01  0.147912E-02
  0.233202E+02  0.543274E-02  0.148023E-02
  0.235602E+02 -0.235219E-02  0.147925E-02
  0.238002E+02 -0.824129E-02  0.147998E-02
  0.240402E+02 -0.119019E-01  0.148713E-02
  0.242802E+02 -0.131183E-01  0.149357E-02
  0.245202E+02 -0.116992E-01  0.150375E-02
  0.247602E+02 -0.801900E-02  0.152176E-02
  0.250002E+02 -0.280066E-02  0.154523E-02
  0.252402E+02  0.312907E-02  0.155736E-02
  0.254802E+02  0.885654E-02  0.159165E-02
  0.257202E+02  0.132381E-01  0.159980E-02
  0.259602E+02  0.153262E-01  0.162897E-02
  0.262002E+02  0.152969E-01  0.163183E-02
  0.264402E+02  0.135167E-01  0.164411E-02
  0.266802E+02  0.989268E-02  0.164860E-02
  0.269202E+02  0.449686E-02  0.165332E-02
  0.271602E+02 -0.114465E-02  0.165843E-02
  0.274002E+02 -0.526477E-02  0.166684E-02
  0.276403E+02 -0.764625E-02  0.168326E-02
  0.278803E+02 -0.870173E-02  0.168544E-02
  0.281203E+02 -0.831897E-02  0.174997E-02
  0.283603E+02 -0.604517E-02  0.176289E-02
  0.286003E+02 -0.211466E-02  0.178317E-02
  0.288403E+02  0.237983E-02  0.181528E-02
  0.290803E+02  0.646845E-02  0.183184E-02
  0.293203E+02  0.966111E-02  0.185990E-02
  0.295603E+02  0.115562E-01  0.187592E-02
  0.298003E+02  0.118128E-01  0.189502E-02
  0.300403E+02  0.101294E-01  0.190142E-02
  0.302803E+02  0.675370E-02  0.190643E-02
  0.305203E+02  0.273979E-02  0.190837E-02
  0.307603E+02 -0.893570E-03  0.192235E-02
  0.310003E+02 -0.374078E-02  0.192544E-02
  0.312403E+02 -0.562889E-02  0.193411E-02
  0.314803E+02 -0.640158E-02  0.195104E-02
  0.317203E+02 -0.593079E-02  0.196164E-02
  0.319604E+02 -0.412223E-02  0.197353E-02
  0.322004E+02 -0.127856E-02  0.199602E-02
  0.324404E+02  0.202272E-02  0.201441E-02
  0.326804E+02  0.520447E-02  0.203228E-02
  0.329204E+02  0.772118E-02  0.204522E-02
  0.331604E+02  0.903784E-02  0.206379E-02
  0.334004E+02  0.882748E-02  0.208101E-02
  0.336404E+02  0.740542E-02  0.208797E-02
  0.338804E+02  0.521044E-02  0.209573E-02
  0.341204E+02  0.264698E-02  0.208592E-02
  0.343604E+02  0.371757E-04  0.210948E-02
  0.346004E+02 -0.230897E-02  0.210352E-02
  0.348404E+02 -0.409049E-02  0.211770E-02
  0.350804E+02 -0.502877E-02  0.212710E-02
  0.353204E+02 -0.484857E-02  0.215360E-02
  0.355604E+02 -0.343712E-02  0.216903E-02
  0.358004E+02 -0.124074E-02  0.218607E-02
  0.360404E+02  0.117399E-02  0.220366E-02
  0.362804E+02  0.327793E-02  0.221747E-02
  0.365205E+02  0.479488E-02  0.232343E-02
  0.367605E+02  0.555342E-02  0.234315E-02
  0.370005E+02  0.539111E-02  0.249231E-02
  0.372405E+02  0.435339E-02  0.251033E-02
  0.374805E+02  0.269870E-02  0.250780E-02
  0.377205E+02  0.695098E-03  0.251403E-02
  0.379605E+02 -0.137672E-02  0.252451E-02
  0.382005E+02 -0.319029E-02  0.254123E-02
  0.384405E+02 -0.440870E-02  0.256343E-02
  0.386805E+02 -0.470480E-02  0.256914E-02
  0.389205E+02 -0.404732E-02  0.257074E-02
  0.391605E+02 -0.274761E-02  0.260178E-02
  0.394005E+02 -0.113611E-02  0.262670E-02
  0.396405E+02  0.468859E-03  0.263584E-02
  0.398805E+02  0.186636E-02  0.266072E-02
  0.401205E+02  0.292122E-02  0.267887E-02
  0.403605E+02  0.349898E-02  0.269490E-02
  0.406005E+02  0.349096E-02  0.269819E-02
  0.408406E+02  0.295158E-02  0.272409E-02
  0.410806E+02  0.199889E-02  0.273431E-02
  0.413206E+02  0.751113E-03  0.273374E-02
  0.415606E+02 -0.662108E-03  0.275608E-02
  0.418006E+02 -0.203285E-02  0.274940E-02
  0.420406E+02 -0.312041E-02  0.277405E-02
  0.422806E+02 -0.368400E-02  0.280258E-02
  0.425206E+02 -0.350595E-02  0.279591E-02
  0.427606E+02 -0.267104E-02  0.280706E-02
  0.430006E+02 -0.147635E-02  0.283108E-02
  0.432406E+02 -0.223356E-03  0.283821E-02
  0.434806E+02  0.787670E-03  0.286674E-02
  0.437206E+02  0.137449E-02  0.289118E-02
  0.439606E+02  0.157173E-02  0.289124E-02
  0.442006E+02  0.143726E-02  0.291390E-02
  0.444406E+02  0.102896E-02  0.292506E-02
  0.446806E+02  0.407851E-03  0.292159E-02
  0.449206E+02 -0.334640E-03  0.293686E-02
  0.451607E+02 -0.109003E-02  0.296800E-02
  0.454007E+02 -0.174964E-02  0.297533E-02
  0.456407E+02 -0.220479E-02  0.298425E-02
  0.458807E+02 -0.236802E-02  0.299462E-02
  0.461207E+02 -0.224566E-02  0.301261E-02
  0.463607E+02 -0.186992E-02  0.301675E-02
  0.466007E+02 -0.127305E-02  0.304600E-02
  0.468407E+02 -0.487274E-03  0.307850E-02
  0.470807E+02  0.433656E-03  0.308630E-02
  0.473207E+02  0.135004E-02  0.308844E-02
  0.475607E+02  0.210071E-02  0.311106E-02
  0.478007E+02  0.252451E-02  0.312509E-02
  0.480407E+02  0.246027E-02  0.314938E-02
  0.482807E+02  0.178714E-02  0.318024E-02
  0.485207E+02  0.677661E-03  0.315928E-02
  0.487607E+02 -0.565851E-03  0.316854E-02
  0.490007E+02 -0.164049E-02  0.319394E-02
  0.492407E+02 -0.224335E-02  0.319563E-02
  0.494808E+02 -0.207152E-02  0.321373E-02
  0.497208E+02 -0.822111E-03  0.324186E-02
  0.499608E+02  0.180779E-02  0.460838E+04

File: T_r
 IOP Conf. Series 107(1990)193
 Fig 9 Top right
 r, T(r)
  0.000000E+00 -0.249991E-01
  0.400000E-01  0.238569E+00
  0.800000E-01  0.171643E+00
  0.120000E+00 -0.172790E+00
  0.160000E+00 -0.462031E+00
  0.200000E+00 -0.447780E+00
  0.240000E+00 -0.235657E+00
  0.280000E+00 -0.758193E-01
  0.320000E+00 -0.272190E-01
  0.360000E+00  0.348276E-02
  0.400000E+00  0.300756E-01
  0.440000E+00 -0.302775E-02
  0.480000E+00 -0.771428E-01
  0.520000E+00 -0.126437E+00
  0.560000E+00 -0.134238E+00
  0.600000E+00 -0.117506E+00
  0.640000E+00 -0.893311E-01
  0.680000E+00 -0.612768E-01
  0.720000E+00 -0.288779E-01
  0.760000E+00  0.144118E-01
  0.800000E+00  0.323651E-01
  0.840000E+00 -0.650185E-02
  0.880000E+00 -0.563002E-01
  0.920000E+00 -0.633281E-01
  0.960000E+00 -0.512492E-01
  0.100000E+01 -0.532034E-01
  0.104000E+01 -0.450272E-01
  0.108000E+01 -0.750419E-02
  0.112000E+01  0.303336E-01
  0.116000E+01  0.397744E-01
  0.120000E+01  0.234483E-01
  0.124000E+01 -0.472799E-02
  0.128000E+01 -0.377672E-01
  0.132000E+01 -0.687678E-01
  0.136000E+01 -0.771187E-01
  0.140000E+01 -0.543574E-01
  0.144000E+01 -0.282367E-01
  0.148000E+01 -0.403705E-02
  0.152000E+01  0.426511E-01
  0.156000E+01  0.886863E-01
  0.160000E+01  0.248120E+00
  0.164000E+01  0.100302E+01
  0.168000E+01  0.260458E+01
  0.172000E+01  0.416576E+01
  0.176000E+01  0.428001E+01
  0.180000E+01  0.279959E+01
  0.184000E+01  0.106902E+01
  0.188000E+01  0.200888E+00
  0.192000E+01  0.640219E-01
  0.196000E+01  0.782986E-01
  0.200000E+01  0.497457E-01
  0.204000E+01  0.255791E-01
  0.208000E+01  0.624835E-02
  0.212000E+01 -0.103912E-01
  0.216000E+01 -0.359261E-02
  0.220000E+01  0.207542E-01
  0.224000E+01  0.468248E-01
  0.228000E+01  0.577102E-01
  0.232000E+01  0.356124E-01
  0.236000E+01 -0.103879E-02
  0.240000E+01 -0.188867E-01
  0.244000E+01 -0.238489E-01
  0.248000E+01 -0.247254E-01
  0.252000E+01  0.456220E-02
  0.256000E+01  0.755000E-01
  0.260000E+01  0.177677E+00
  0.264000E+01  0.336717E+00
  0.268000E+01  0.590436E+00
  0.272000E+01  0.912791E+00
  0.276000E+01  0.122512E+01
  0.280000E+01  0.145314E+01
  0.284000E+01  0.154178E+01
  0.288000E+01  0.147117E+01
  0.292000E+01  0.128933E+01
  0.296000E+01  0.109225E+01
  0.300000E+01  0.961474E+00
  0.304000E+01  0.932710E+00
  0.308000E+01  0.996790E+00
  0.312000E+01  0.110441E+01
  0.316000E+01  0.119028E+01
  0.320000E+01  0.121052E+01
  0.324000E+01  0.115483E+01
  0.328000E+01  0.104098E+01
  0.332000E+01  0.913824E+00
  0.336000E+01  0.823670E+00
  0.340000E+01  0.785957E+00
  0.344000E+01  0.780352E+00
  0.348000E+01  0.789110E+00
  0.352000E+01  0.809855E+00
  0.356000E+01  0.839041E+00
  0.360000E+01  0.870509E+00
  0.364000E+01  0.902674E+00
  0.368000E+01  0.933219E+00
  0.372000E+01  0.960023E+00
  0.376000E+01  0.989388E+00
  0.380000E+01  0.102522E+01
  0.384000E+01  0.105421E+01
  0.388000E+01  0.106093E+01
  0.392000E+01  0.105253E+01
  0.396000E+01  0.105214E+01
  0.400000E+01  0.107261E+01
  0.404000E+01  0.111057E+01
  0.408000E+01  0.116157E+01
  0.412000E+01  0.122497E+01
  0.416000E+01  0.129568E+01
  0.420000E+01  0.136799E+01
  0.424000E+01  0.144746E+01
  0.428000E+01  0.154312E+01
  0.432000E+01  0.164856E+01
  0.436000E+01  0.174338E+01
  0.440000E+01  0.180961E+01
  0.444000E+01  0.183588E+01
  0.448000E+01  0.181245E+01
  0.452000E+01  0.173614E+01
  0.456000E+01  0.162100E+01
  0.460000E+01  0.149661E+01
  0.464000E+01  0.139305E+01
  0.468000E+01  0.132818E+01
  0.472000E+01  0.130650E+01
  0.476000E+01  0.132193E+01
  0.480000E+01  0.135990E+01
  0.484000E+01  0.140518E+01
  0.488000E+01  0.145241E+01
  0.492000E+01  0.150448E+01
  0.496000E+01  0.156064E+01
  0.500000E+01  0.161297E+01
  0.504000E+01  0.165509E+01
  0.508000E+01  0.168884E+01
  0.512000E+01  0.172021E+01
  0.516000E+01  0.175145E+01
  0.520000E+01  0.178020E+01
  0.524000E+01  0.180518E+01
  0.528000E+01  0.182804E+01
  0.532000E+01  0.184923E+01
  0.536000E+01  0.186654E+01
  0.540000E+01  0.187788E+01
  0.544000E+01  0.188156E+01
  0.548000E+01  0.187437E+01
  0.552000E+01  0.185388E+01
  0.556000E+01  0.182363E+01
  0.560000E+01  0.179403E+01
  0.564000E+01  0.177525E+01
  0.568000E+01  0.176839E+01
  0.572000E+01  0.176550E+01
  0.576000E+01  0.175928E+01
  0.580000E+01  0.175088E+01
  0.584000E+01  0.174784E+01
  0.588000E+01  0.175661E+01
  0.592000E+01  0.177793E+01
  0.596000E+01  0.180703E+01
  0.600000E+01  0.183650E+01
  0.604000E+01  0.185979E+01
  0.608000E+01  0.187421E+01
  0.612000E+01  0.188214E+01
  0.616000E+01  0.188893E+01
  0.620000E+01  0.189871E+01
  0.624000E+01  0.191165E+01
  0.628000E+01  0.192477E+01
  0.632000E+01  0.193544E+01
  0.636000E+01  0.194364E+01
  0.640000E+01  0.195076E+01
  0.644000E+01  0.195807E+01
  0.648000E+01  0.196767E+01
  0.652000E+01  0.198237E+01
  0.656000E+01  0.200230E+01
  0.660000E+01  0.202309E+01
  0.664000E+01  0.203838E+01
  0.668000E+01  0.204373E+01
  0.672000E+01  0.204022E+01
  0.676000E+01  0.203499E+01
  0.680000E+01  0.203582E+01
  0.684000E+01  0.204484E+01
  0.688000E+01  0.205897E+01
  0.692000E+01  0.207406E+01
  0.696000E+01  0.208661E+01
  0.700000E+01  0.209448E+01
  0.704000E+01  0.209852E+01
  0.708000E+01  0.210200E+01
  0.712000E+01  0.210815E+01
  0.716000E+01  0.211902E+01
  0.720000E+01  0.213513E+01
  0.724000E+01  0.215485E+01
  0.728000E+01  0.217532E+01
  0.732000E+01  0.219510E+01
  0.736000E+01  0.221505E+01
  0.740000E+01  0.223657E+01
  0.744000E+01  0.225997E+01
  0.748000E+01  0.228525E+01
  0.752000E+01  0.231282E+01
  0.756000E+01  0.234265E+01
  0.760000E+01  0.237304E+01
  0.764000E+01  0.240098E+01
  0.768000E+01  0.242360E+01
  0.772000E+01  0.243947E+01
  0.776000E+01  0.244935E+01
  0.780000E+01  0.245570E+01
  0.784000E+01  0.246131E+01
  0.788000E+01  0.246783E+01
  0.792000E+01  0.247510E+01
  0.796000E+01  0.248207E+01
  0.800000E+01  0.248853E+01
  0.804000E+01  0.249496E+01
  0.808000E+01  0.250139E+01
  0.812000E+01  0.250786E+01
  0.816000E+01  0.251534E+01
  0.820000E+01  0.252460E+01
  0.824000E+01  0.253487E+01
  0.828000E+01  0.254480E+01
  0.832000E+01  0.255425E+01
  0.836000E+01  0.256425E+01
  0.840000E+01  0.257619E+01
  0.844000E+01  0.259119E+01
  0.848000E+01  0.260950E+01
  0.852000E+01  0.263011E+01
  0.856000E+01  0.265103E+01
  0.860000E+01  0.267049E+01
  0.864000E+01  0.268833E+01
  0.868000E+01  0.270579E+01
  0.872000E+01  0.272398E+01
  0.876000E+01  0.274299E+01
  0.880000E+01  0.276230E+01
  0.884000E+01  0.278155E+01
  0.888000E+01  0.280058E+01
  0.892000E+01  0.281875E+01
  0.896000E+01  0.283477E+01
  0.900000E+01  0.284771E+01
  0.904000E+01  0.285758E+01
  0.908000E+01  0.286485E+01
  0.912000E+01  0.287020E+01
  0.916000E+01  0.287513E+01
  0.920000E+01  0.288174E+01
  0.924000E+01  0.289150E+01
  0.928000E+01  0.290454E+01
  0.932000E+01  0.291987E+01
  0.936000E+01  0.293572E+01
  0.940000E+01  0.294986E+01
  0.944000E+01  0.296015E+01
  0.948000E+01  0.296554E+01
  0.952000E+01  0.296697E+01
  0.956000E+01  0.296715E+01
  0.960000E+01  0.296925E+01
  0.964000E+01  0.297560E+01
  0.968000E+01  0.298681E+01
  0.972000E+01  0.300192E+01
  0.976000E+01  0.301936E+01
  0.980000E+01  0.303785E+01
  0.984000E+01  0.305635E+01
  0.988000E+01  0.307397E+01
  0.992000E+01  0.309042E+01
  0.996000E+01  0.310593E+01
  0.100000E+02  0.312054E+01