Folder: torchdisorder/data-release/xrd_measurements/li2.99_po3.38_n0.41

Note: README.md
# torchdisorder

Torch-based modeling for disordered materials using PyTorch autograd to match target RDFs from XRD or neutron diffraction.

## Features

- Differentiable radial distribution function (RDF) loss
- Automatic config management with Hydra
- Experiment tracking with Weights & Biases
- Compatible with CUDA/GPU acceleration

## Usage

Run an experiment:

```bash
python -m torchdisorder.cli
```

Override parameters:

```bash
python -m torchdisorder.cli experiment.n_steps=10000 optimizer.lr=5e-4
```


```
amorphgen/
│
├── src/
│   └── amorphgen/
│       ├── __init__.py
│       ├── cli.py               # hydra entrypoint
│       ├── data/
│       │   ├── target_rdf.py    # loads & interpolates experimental RDF
│       │   └── utils.py
│       ├── model/
│       │   ├── generator.py     # positions -> (torch.tensor) coords
│       │   ├── rdf.py           # differentiable RDF calculator
│       │   └── loss.py
│       ├── engine/
│       │   ├── trainer.py       # main optimisation loop
│       │   └── callbacks.py     # W&B + other hooks
│       └── viz/
│           └── plot_rdf.py
│
├── configs/                     # hydra default config tree
│   ├── config.yaml
│   ├── experiment/
│   ├── optimizer/
│   ├── system/
│   └── wandb/
│
├── tests/
│
├── pyproject.toml               # poetry / setuptools
└── README.md
```

File: T_of_r.csv
,r,T
0,1.014,-3.01448
1,1.074,-3.26248
2,1.115,-3.37745
3,1.158,-3.31734
4,1.201,-3.05073
5,1.241,-2.54574
6,1.275,-1.94256
7,1.306,-1.28921
8,1.331,-0.622914
9,1.355,-0.0128013
10,1.376,0.647819
11,1.399,1.31222
12,1.423,2.02413
13,1.446,2.74497
14,1.461,3.27288
15,1.466,3.44262
16,1.542,4.38157
17,1.582,4.4472
18,1.618,4.10059
19,1.644,3.44101
20,1.665,2.74298
21,1.683,1.92816
22,1.698,1.1373
23,1.712,0.287446
24,1.718,-0.164863
25,1.726,-0.561386
26,1.736,-1.27058
27,1.749,-2.09726
28,1.756,-2.48548
29,1.766,-3.10396
30,1.775,-3.85384
31,1.784,-4.42677
32,1.793,-5.19065
33,1.798,-5.6697
34,1.811,-6.36615
35,1.825,-6.9814
36,1.834,-7.58465
37,1.855,-8.20286
38,1.865,-9.17498
39,1.871,-9.52837
40,1.876,-10.0812
41,1.887,-10.8913
42,1.9,-11.8788
43,1.913,-12.8042
44,1.928,-13.8471
45,1.942,-14.8633
46,1.958,-15.9176
47,1.979,-17.0387
48,2.003,-18.1205
49,2.032,-18.9455
50,2.057,-19.3532
51,2.085,-19.6167
52,2.121,-19.2247
53,2.151,-18.3241
54,2.174,-17.3162
55,2.193,-16.2817
56,2.21,-15.2798
57,2.227,-14.2508
58,2.243,-13.1984
59,2.261,-11.9546
60,2.278,-10.6647
61,2.296,-9.30865
62,2.314,-7.99017
63,2.331,-6.69766
64,2.35,-5.35951
65,2.368,-4.01759
66,2.387,-2.69707
67,2.404,-1.5411
68,2.424,-0.379428
69,2.446,0.8551
70,2.473,2.10571
71,2.501,3.10311
72,2.537,3.96011
73,2.58,4.33964
74,2.62,4.02153
75,2.651,3.24336
76,2.706,2.25729
77,2.714,2.0289
78,2.736,1.18154
79,2.763,-0.133658
80,2.791,-1.41488
81,2.819,-2.61201
82,2.852,-3.83937
83,2.89,-5.11578
84,2.93,-6.12455
85,2.973,-6.80606
86,3.015,-7.00655
87,3.056,-6.85064
88,3.098,-6.1809
89,3.14,-5.35454
90,3.172,-4.54462
91,3.197,-4.01338
92,3.227,-3.39489
93,3.261,-2.79584
94,3.301,-2.28748
95,3.343,-2.05628
96,3.386,-2.12667
97,3.426,-2.49267
98,3.468,-3.13835
99,3.502,-3.77511
100,3.53,-4.3856
101,3.552,-4.87392
102,3.573,-5.33556
103,3.603,-6.00382
104,3.642,-6.7148
105,3.687,-7.26032
106,3.728,-7.45393
107,3.771,-7.42573
108,3.813,-7.11255
109,3.854,-6.63881
110,3.896,-6.20552
111,3.938,-5.8295
112,3.98,-5.68503
113,4.019,-5.82767
114,4.055,-6.14303
115,4.084,-6.62862
116,4.104,-7.05168
117,4.118,-7.87655
118,4.136,-8.55238
119,4.173,-10.4199
120,4.186,-10.8686
121,4.22,-11.9793
122,4.26,-13.1436
123,4.3,-14.2153
124,4.341,-14.971
125,4.381,-15.3553
126,4.409,-15.3959
127,4.441,-14.6927
128,4.473,-13.4112
129,4.496,-12.7829
130,4.518,-11.6721
131,4.525,-11.2988
132,4.541,-10.7493
133,4.552,-10.1846
134,4.565,-9.71993
135,4.59,-8.54204
136,4.606,-7.91424
137,4.651,-6.4917
138,4.692,-4.60851
139,4.741,-3.01873
140,4.771,-1.79943
141,4.813,-0.191197
142,4.852,1.1087
143,4.892,2.28184
144,4.927,3.04436
145,5.001,6.03196
146,5.036,7.05496
147,5.078,8.54135
148,5.12,10.0743
149,5.162,11.4744
150,5.204,12.6707
151,5.245,13.4285
152,5.288,14.0189
153,5.331,13.7176
154,5.373,13.1056
155,5.415,11.9196
156,5.455,10.3553
157,5.49,8.66454
158,5.526,7.02415
159,5.556,5.13944
160,5.591,3.50266
161,5.624,1.64976
162,5.657,0.509122
163,5.689,-0.668974
164,5.717,-1.77323
165,5.754,-3.272
166,5.795,-4.19399
167,5.843,-4.98423
168,5.89,-6.01811
169,5.931,-6.85539
170,5.972,-7.65201
171,5.996,-7.96809