Folder: torchdisorder/data-release/xrd_measurements/Li3PS4_gamma

Note: README.md
# torchdisorder

Torch-based modeling for disordered materials using PyTorch autograd to match target RDFs from XRD or neutron diffraction.

## Features

- Differentiable radial distribution function (RDF) loss
- Automatic config management with Hydra
- Experiment tracking with Weights & Biases
- Compatible with CUDA/GPU acceleration

## Usage

Run an experiment:

```bash
python -m torchdisorder.cli
```

Override parameters:

```bash
python -m torchdisorder.cli experiment.n_steps=10000 optimizer.lr=5e-4
```


```
amorphgen/
│
├── src/
│   └── amorphgen/
│       ├── __init__.py
│       ├── cli.py               # hydra entrypoint
│       ├── data/
│       │   ├── target_rdf.py    # loads & interpolates experimental RDF
│       │   └── utils.py
│       ├── model/
│       │   ├── generator.py     # positions -> (torch.tensor) coords
│       │   ├── rdf.py           # differentiable RDF calculator
│       │   └── loss.py
│       ├── engine/
│       │   ├── trainer.py       # main optimisation loop
│       │   └── callbacks.py     # W&B + other hooks
│       └── viz/
│           └── plot_rdf.py
│
├── configs/                     # hydra default config tree
│   ├── config.yaml
│   ├── experiment/
│   ├── optimizer/
│   ├── system/
│   └── wandb/
│
├── tests/
│
├── pyproject.toml               # poetry / setuptools
└── README.md
```

File: F_of_Q.csv
,Q,F,dF
0,0.462852,-0.192282,1e-7
26,0.543057,-0.203416,0.0001
52,0.62325,-0.208308,0.0001
78,0.70343,-0.20491,0.0001
104,0.783596,-0.189703,0.0001
130,0.863746,-0.155815,0.0001
156,0.943878,-0.083598,0.0001
182,1.02399,0.059339,0.0001
208,1.10408,0.312226,0.0001
234,1.18415,0.639184,0.0001
260,1.26419,0.852211,0.0001
286,1.34421,0.788545,0.0001
312,1.4242,0.582097,0.0001
338,1.50417,0.414081,0.0001
364,1.5841,0.325264,0.0001
390,1.66399,0.320968,0.0001
416,1.74386,0.389971,0.0001
442,1.82368,0.562401,0.0001
468,1.90347,0.906525,0.0001
494,1.98322,1.362755,0.0001
520,2.06293,1.865131,0.0001
546,2.1426,1.784908,0.0001
572,2.22223,1.282523,0.0001
598,2.3018,0.900817,0.0001
624,2.38133,0.698291,0.0001
650,2.46081,0.603924,0.0001
676,2.54024,0.570399,0.0001
702,2.61962,0.581014,0.0001
728,2.69895,0.617022,0.0001
754,2.77822,0.653571,0.0001
780,2.85743,0.712292,0.0001
806,2.93658,0.77065,0.0001
832,3.01567,0.831238,0.0001
858,3.0947,0.93426,0.0001
884,3.17367,0.933007,0.0001
910,3.25257,0.950732,0.0001
936,3.3314,0.995668,0.0001
962,3.41017,1.080052,0.0001
988,3.48886,1.194767,0.0001
1014,3.56749,1.288097,0.0001
1040,3.64604,1.376541,0.0001
1066,3.72451,1.363839,0.0001
1092,3.80291,1.35814,0.0001
1118,3.88123,1.349314,0.0001
1144,3.95947,1.335462,0.0001
1170,4.03763,1.326753,0.0001
1196,4.1157,1.309476,0.0001
1222,4.19369,1.253335,0.0001
1248,4.2716,1.171411,0.0001
1274,4.34941,1.081803,0.0001
1300,4.42714,0.998461,0.0001
1326,4.50477,0.931949,0.0001
1352,4.58232,0.888988,0.0001
1378,4.65977,0.854939,0.0001
1404,4.73712,0.850153,0.0001
1430,4.81437,0.84671,0.0001
1456,4.89153,0.842206,0.0001
1482,4.96858,0.826781,0.0001
1508,5.04554,0.810332,0.0001
1534,5.12238,0.807282,0.0001
1560,5.19913,0.795082,0.0001
1586,5.27576,0.777805,0.0001
1612,5.35229,0.795477,0.0001
1638,5.42871,0.803626,0.0001
1664,5.50501,0.832599,0.0001
1690,5.58121,0.864172,0.0001
1716,5.65728,0.910673,0.0001
1742,5.73324,0.945374,0.0001
1768,5.80909,0.993595,0.0001
1794,5.88481,1.019968,0.0001
1820,5.96041,1.063852,0.0001
1846,6.03589,1.09079,0.0001
1872,6.11124,1.106957,0.0001
1898,6.18647,1.132079,0.0001
1924,6.26158,1.136104,0.0001
1950,6.33655,1.13509,0.0001
1976,6.41139,1.121534,0.0001
2002,6.4861,1.127984,0.0001
2028,6.56068,1.084281,0.0001
2054,6.63512,1.07415,0.0001
2080,6.70942,1.038793,0.0001
2106,6.78359,1.02563,0.0001
2132,6.85762,1.019001,0.0001
2158,6.9315,1.001705,0.0001
2184,7.00525,1.005742,0.0001
2210,7.07884,1.002967,0.0001
2236,7.1523,1.000364,0.0001
2262,7.2256,1.00173,0.0001
2288,7.29876,1.01188,0.0001
2314,7.37177,1.008999,0.0001
2340,7.44462,1.025803,0.0001
2366,7.51732,1.025172,0.0001
2392,7.58987,1.042332,0.0001
2418,7.66226,1.041378,0.0001
2444,7.73449,1.035507,0.0001
2470,7.80657,1.033317,0.0001
2496,7.87848,1.033721,0.0001
2522,7.95023,1.027524,0.0001
2548,8.02182,1.020577,0.0001
2574,8.09324,1.004546,0.0001
2600,8.16449,0.979497,0.0001
2626,8.23558,0.963178,0.0001
2652,8.3065,0.957946,0.0001
2678,8.37724,0.926481,0.0001
2704,8.44782,0.918925,0.0001
2730,8.51821,0.896733,0.0001
2756,8.58844,0.892,0.0001
2782,8.65849,0.868595,0.0001
2808,8.72836,0.879054,0.0001
2834,8.79804,0.871054,0.0001
2860,8.86755,0.868751,0.0001
2886,8.93688,0.889909,0.0001
2912,9.00602,0.908065,0.0001
2938,9.07498,0.915388,0.0001
2964,9.14375,0.912256,0.0001
2990,9.21233,0.947403,0.0001
3016,9.28072,0.979639,0.0001
3042,9.34892,1.012886,0.0001
3068,9.41692,1.033257,0.0001
3094,9.48474,1.049692,0.0001
3120,9.55236,1.090881,0.0001
3146,9.61978,1.107627,0.0001
3172,9.687,1.10523,0.0001
3198,9.75403,1.133797,0.0001
3224,9.82085,1.128187,0.0001
3250,9.88747,1.139594,0.0001
3276,9.95389,1.159093,0.0001
3302,10.0201,1.10502,0.0001
3328,10.0861,1.135352,0.0001
3354,10.1519,1.105964,0.0001
3380,10.2175,1.077228,0.0001
3406,10.2829,1.072507,0.0001
3432,10.348,1.05237,0.0001
3458,10.413,1.037236,0.0001
3484,10.4777,0.998294,0.0001
3510,10.5423,1.024263,0.0001
3536,10.6066,0.981426,0.0001
3562,10.6707,0.967036,0.0001
3588,10.7345,0.945496,0.0001
3614,10.7982,0.97769,0.0001
3640,10.8616,0.936993,0.0001
3666,10.9248,0.941249,0.0001
3692,10.9878,0.922386,0.0001
3718,11.0505,0.938589,0.0001
3744,11.113,0.926436,0.0001
3770,11.1753,0.930732,0.0001
3796,11.2374,0.933492,0.0001
3822,11.2992,0.943128,0.0001
3848,11.3608,0.959571,0.0001
3874,11.4222,0.936138,0.0001
3900,11.4833,0.967588,0.0001
3926,11.5442,0.960472,0.0001
3952,11.6049,0.956834,0.0001
3978,11.6653,0.953206,0.0001
4004,11.7255,0.967382,0.0001
4030,11.7854,0.972461,0.0001
4056,11.8451,1.012589,0.0001
4082,11.9046,0.99881,0.0001
4108,11.9638,0.973545,0.0001
4134,12.0227,0.970975,0.0001
4160,12.0814,1.010004,0.0001
4186,12.1399,1.017482,0.0001
4212,12.1981,0.986145,0.0001
4238,12.2561,0.990726,0.0001
4264,12.3138,1.009892,0.0001
4290,12.3712,1.001543,0.0001
4316,12.4284,0.965338,0.0001
4342,12.4854,0.981937,0.0001
4368,12.5421,0.989883,0.0001
4394,12.5985,1.001972,0.0001
4420,12.6547,0.986333,0.0001
4446,12.7106,1.013328,0.0001
4472,12.7662,1.0066,0.0001
4498,12.8216,1.037886,0.0001
4524,12.8767,1.012072,0.0001
4550,12.9316,1.042441,0.0001
4576,12.9862,1.037993,0.0001
4602,13.0405,1.06457,0.0001
4628,13.0945,1.036065,0.0001
4654,13.1483,1.059539,0.0001
4680,13.2018,1.054786,0.0001
4706,13.2551,1.11935,0.0001
4732,13.308,1.074985,0.0001
4758,13.3607,1.091851,0.0001
4784,13.4131,1.055166,0.0001
4810,13.4653,1.068746,0.0001
4836,13.5171,1.060721,0.0001
4862,13.5687,1.034638,0.0001
4888,13.62,1.027333,0.0001
4914,13.6711,1.06204,0.0001
4940,13.7218,1.059548,0.0001
4966,13.7723,1.046183,0.0001
4992,13.8224,0.984079,0.0001
5018,13.8723,1.00656,0.0001
5044,13.9219,0.939626,0.0001
5070,13.9713,0.985724,0.0001
5096,14.0203,0.954748,0.0001
5122,14.069,0.941874,0.0001
5148,14.1175,1.00117,0.0001
5174,14.1657,0.904865,0.0001
5200,14.2135,0.917138,0.0001
5226,14.2611,0.946354,0.0001
5252,14.3084,0.916515,0.0001
5278,14.3554,0.920528,0.0001
5304,14.4021,0.914304,0.0001
5330,14.4485,0.920739,0.0001
5356,14.4946,0.929771,0.0001
5382,14.5404,0.947485,0.0001
5408,14.5859,0.930759,0.0001
5434,14.6311,0.918774,0.0001
5460,14.676,0.950832,0.0001
5486,14.7206,0.948799,0.0001
5512,14.7649,0.927045,0.0001
5538,14.8089,0.966185,0.0001
5564,14.8526,0.921764,0.0001
5590,14.896,0.993921,0.0001
5616,14.9391,0.954298,0.0001
5642,14.9818,0.956162,0.0001
5668,15.0243,0.974936,0.0001
5694,15.0664,0.997673,0.0001
5720,15.1083,0.998728,0.0001
5746,15.1498,0.979732,0.0001
5772,15.191,1.017798,0.0001
5798,15.2319,0.997461,0.0001
5824,15.2725,1.011429,0.0001
5850,15.3128,1.055593,0.0001
5876,15.3527,1.03041,0.0001
5902,15.3924,0.98176,0.0001
5928,15.4317,1.02591,0.0001
5954,15.4707,1.012848,0.0001
5980,15.5094,1.081633,0.0001
6006,15.5478,1.058537,0.0001
6032,15.5858,1.124153,0.0001
6058,15.6236,1.042876,0.0001
6084,15.661,1.0729,0.0001
6110,15.6981,1.015115,0.0001
6136,15.7348,0.984531,0.0001
6162,15.7713,1.031619,0.0001
6188,15.8074,0.971544,0.0001
6214,15.8432,1.012039,0.0001
6240,15.8786,1.030084,0.0001
6266,15.9138,1.044047,0.0001
6292,15.9486,1.072165,0.0001
6318,15.9831,0.984578,0.0001
6344,16.0172,1.028455,0.0001
6370,16.051,1.054719,0.0001
6396,16.0845,0.994953,0.0001
6422,16.1177,1.167944,0.0001
6448,16.1505,1.021488,0.0001
6474,16.183,1.105571,0.0001
6500,16.2152,1.017569,0.0001
6526,16.247,1.025492,0.0001
6552,16.2785,1.014195,0.0001
6578,16.3096,1.021956,0.0001
6604,16.3405,0.959422,0.0001
6630,16.3709,0.940929,0.0001
6656,16.4011,0.952379,0.0001
6682,16.4309,0.943337,0.0001
6708,16.4604,1.007218,0.0001
6734,16.4895,0.930154,0.0001
6760,16.5183,0.923913,0.0001
6786,16.5468,0.975948,0.0001
6812,16.5749,0.940189,0.0001
6838,16.6026,0.95553,0.0001
6864,16.6301,0.987012,0.0001
6890,16.6572,0.95818,0.0001
6916,16.6839,1.033614,0.0001
6942,16.7103,0.974752,0.0001
6968,16.7364,1.054709,0.0001
6994,16.7621,0.966675,0.0001
7020,16.7874,0.943866,0.0001
7046,16.8125,1.037339,0.0001
7072,16.8371,0.893392,0.0001
7098,16.8615,0.987931,0.0001
7124,16.8854,0.975461,0.0001
7150,16.9091,1.020214,0.0001
7176,16.9324,0.983474,0.0001
7202,16.9553,1.033821,0.0001
7228,16.9779,1.016971,0.0001
7254,17.0001,1.025637,0.0001
7280,17.022,1.052216,0.0001
7306,17.0435,0.956306,0.0001
7332,17.0647,0.958962,0.0001
7358,17.0856,0.963394,0.0001
7384,17.106,0.926236,0.0001
7410,17.1262,0.925624,0.0001
7436,17.146,0.981857,0.0001
7462,17.1654,0.965641,0.0001
7488,17.1845,0.924741,0.0001
7514,17.2032,0.992961,0.0001
7540,17.2215,1.015367,0.0001
7566,17.2395,0.944727,0.0001
7592,17.2572,0.981607,0.0001
7618,17.2745,0.915014,0.0001
7644,17.2914,0.906871,0.0001
7670,17.308,0.909029,0.0001
7696,17.3243,0.903643,0.0001
7722,17.3401,0.922614,0.0001
7724,17.3413,0.927425,0.0001

File: T_of_r.csv
,r,T
0,0.0416667,-0.044703
1,0.125,-0.044703
2,0.208333,-0.044703
3,0.291667,-0.044703
4,0.375,-0.044703
5,0.458333,-0.044703
6,0.541667,-0.044703
7,0.625,-0.044703
8,0.708333,-0.044703
9,0.791667,-0.044703
10,0.875,-0.044703
11,0.958333,-0.044703
12,1.04167,-0.044703
13,1.125,-0.044703
14,1.20833,-0.044703
15,1.29167,-0.044703
16,1.375,-0.044703
17,1.45833,-0.044703
18,1.54167,-0.044703
19,1.625,-0.044703
20,1.70833,-0.044703
21,1.79167,-0.044703
22,1.875,-0.0432809
23,1.95833,-0.00118463
24,2.04167,0.068959
25,2.125,0.0220474
26,2.20833,-0.0150683
27,2.29167,-0.00186064
28,2.375,0.01722
29,2.45833,0.0233368
30,2.54167,0.0130145
31,2.625,0.00222134
32,2.70833,-0.00734099
33,2.79167,-0.0170233
34,2.875,-0.0195263
35,2.95833,-0.0237269
36,3.04167,-0.023162
37,3.125,-0.0197847
38,3.20833,-0.00919563
39,3.29167,0.00458785
40,3.375,0.015876
41,3.45833,0.0180288
42,3.54167,0.0118653
43,3.625,0.00572498
44,3.70833,0.00521559
45,3.79167,0.00244922
46,3.875,0.00293273
47,3.95833,0.00357732
48,4.04167,0.00124236
49,4.125,0.00284726
50,4.20833,0.00231413
51,4.29167,0.00179853
52,4.375,0.000740604
53,4.45833,-0.000594698
54,4.54167,-5.15636e-05
55,4.625,-0.00175727
56,4.70833,-0.00149157
57,4.79167,-0.00315798
58,4.875,-0.00402514
59,4.95833,-0.00347266
60,5.04167,-0.00329763
61,5.125,-0.00124275
62,5.20833,-0.0017091
63,5.29167,-1.70676e-05
64,5.375,0.00151753
65,5.45833,0.00106029
66,5.54167,0.00067882
67,5.625,-0.000114062
68,5.70833,4.81005e-05
69,5.79167,0.00150947
70,5.875,0.00118042
71,5.95833,-0.000489489
72,6.04167,0.000229957
73,6.125,-0.000825728
74,6.20833,-0.000908131
75,6.29167,-0.000887874
76,6.375,-0.000356026
77,6.45833,-0.000162598
78,6.54167,0.000195227
79,6.625,0.000586388
80,6.70833,0.000960722
81,6.79167,0.000559047
82,6.875,0.00070785
83,6.95833,0.00076781
84,7.04167,0.000240306
85,7.125,-4.95466e-05
86,7.20833,0.00118344
87,7.29167,-7.01257e-05
88,7.375,0.000691163
89,7.45833,0.000701556
90,7.54167,0.000863068
91,7.625,0.000843251
92,7.70833,-4.3885e-05
93,7.79167,0.000535368
94,7.875,-0.00047064
95,7.95833,-0.00059491
96,8.04167,0.00025896
97,8.125,-9.19336e-05
98,8.20833,-0.000830397
99,8.29167,-0.000600152
100,8.375,-0.000573209
101,8.45833,-0.00103579
102,8.54167,-0.000497104
103,8.625,-0.00032559
104,8.70833,-0.000794132
105,8.79167,-0.000184272
106,8.875,0.000435023
107,8.95833,0.000430106
108,9.04167,-0.000182999
109,9.125,-0.000131278
110,9.20833,0.000399779
111,9.29167,-0.000439252
112,9.375,-5.99602e-05
113,9.45833,0.000900207
114,9.54167,0.0006822
115,9.625,0.000473164
116,9.70833,0.000254347
117,9.79167,0.000298969
118,9.875,1.20251e-05
119,9.95833,-0.000341734
120,10.0417,-0.000237218
121,10.125,-0.000171184
122,10.2083,-0.000171092
123,10.2917,-0.000298549
124,10.375,-0.000278372
125,10.4583,-0.000572141
126,10.5417,-0.000207022
127,10.625,-0.000142255
128,10.7083,3.90347e-05
129,10.7917,-8.75151e-05
130,10.875,0.000250645
131,10.9583,-0.000188687
132,11.0417,-0.000506924
133,11.125,0.000101869
134,11.2083,2.94057e-05
135,11.2917,0.00054016
136,11.375,-0.000121565
137,11.4583,-0.000531005
138,11.5417,0.000223542
139,11.625,-0.000164635
140,11.7083,0.00061726
141,11.7917,5.39476e-05
142,11.875,0.000365474
143,11.9583,-0.000120356
144,12.0417,4.9075e-05
145,12.125,-0.000523765
146,12.2083,0.000664511
147,12.2917,5.95847e-05
148,12.375,-0.000237369
149,12.4583,-0.000141642
150,12.5417,-2.67235e-05
151,12.625,0.000556222
152,12.7083,-7.35231e-05
153,12.7917,-0.000253584
154,12.875,0.000476347
155,12.9583,0.000133354
156,13.0417,0.000156586
157,13.125,-5.96651e-05
158,13.2083,-2.74566e-05
159,13.2917,3.79082e-06
160,13.375,0.000238388
161,13.4583,-0.000245259
162,13.5417,4.21907e-05
163,13.625,0.000243565
164,13.7083,-0.000394904
165,13.7917,-0.000101774
166,13.875,-0.000390588
167,13.9583,4.61917e-05
168,14.0417,5.82838e-05
169,14.125,-0.000262478
170,14.2083,0.00026829
171,14.2917,-0.000361355
172,14.375,-0.000133132
173,14.4583,-0.000105403
174,14.5417,3.19224e-05
175,14.625,5.55435e-05
176,14.7083,0.000331321
177,14.7917,-5.36436e-07
178,14.875,0.00025812
179,14.9583,-0.000300887
180,15.0417,0.00038454
181,15.125,9.30002e-05
182,15.2083,-0.000182351
183,15.2917,-3.58536e-05
184,15.375,-0.000371321
185,15.4583,-0.000225186
186,15.5417,-0.000267597
187,15.625,0.000288147
188,15.7083,0.000114234
189,15.7917,0.000384831
190,15.875,-9.96578e-05
191,15.9583,0.00016651
192,16.0417,0.000310311
193,16.125,0.000161897
194,16.2083,0.000184798
195,16.2917,-0.000567697
196,16.375,-0.000148794
197,16.4583,0.000102276
198,16.5417,-0.000115763
199,16.625,5.7953e-05
200,16.7083,-2.95733e-05
201,16.7917,-0.000256816
202,16.875,-2.47852e-05
203,16.9583,0.000209474
204,17.0417,0.000229452
205,17.125,4.31295e-05
206,17.2083,-0.000417298
207,17.2917,0.000213198
208,17.375,-0.000122221
209,17.4583,-0.000362783
210,17.5417,-9.61621e-05
211,17.625,0.000149272
212,17.7083,-6.31073e-05
213,17.7917,0.000142397
214,17.875,0.000366359
215,17.9583,7.1659e-05
216,18.0417,-3.27334e-05
217,18.125,0.000100112
218,18.2083,0.000121199
219,18.2917,-0.000182183
220,18.375,-0.000214204
221,18.4583,0.000107359
222,18.5417,3.1538e-05
223,18.625,5.24143e-05
224,18.7083,-2.47655e-06
225,18.7917,-0.000288542
226,18.875,9.76627e-05
227,18.9583,0.000217655
228,19.0417,-0.00028669
229,19.125,0.000220207
230,19.2083,-2.18598e-06
231,19.2917,-0.000175578
232,19.375,1.43184e-05
233,19.4583,-5.4189e-05
234,19.5417,0.000287597
235,19.625,0.000257995
236,19.7083,0.000344674
237,19.7917,-0.000339999
238,19.875,-0.000288871
239,19.9583,0.000233229
240,20.0417,-6.7633e-05
241,20.125,-0.000105566
242,20.2083,0.000113845
243,20.2917,-4.76087e-05
244,20.375,-7.44887e-05
245,20.4583,4.20253e-05
246,20.5417,-9.55215e-05
247,20.625,-0.000337056
248,20.7083,-7.81525e-05
249,20.7917,5.84179e-05
250,20.875,0.000123009
251,20.9583,6.20478e-06
252,21.0417,-1.67234e-05
253,21.125,-0.000247751
254,21.2083,0.000215683
255,21.2917,-2.22912e-05
256,21.375,0.000383695
257,21.4583,-4.10329e-05
258,21.5417,1.53331e-06
259,21.625,-7.59639e-06
260,21.7083,-0.000108917
261,21.7917,-9.75581e-05
262,21.875,0.000164083
263,21.9583,-0.000172111
264,22.0417,2.53377e-05
265,22.125,-0.000243994
266,22.2083,5.76222e-05
267,22.2917,3.26913e-05
268,22.375,8.60176e-05
269,22.4583,0.00011106
270,22.5417,4.76892e-05
271,22.625,-5.53155e-06
272,22.7083,1.84266e-05
273,22.7917,-5.28792e-05
274,22.875,4.61246e-05
275,22.9583,-9.2453e-05
276,23.0417,7.41176e-06
277,23.125,9.65899e-05
278,23.2083,0.000146809
279,23.2917,-0.000102085
280,23.375,-9.16166e-05
281,23.4583,-4.92851e-05
282,23.5417,-0.000501887
283,23.625,0.000127189
284,23.7083,1.9714e-06
285,23.7917,-1.43676e-05
286,23.875,0.000174941
287,23.9583,0.000221101
288,24.0417,-6.76312e-05
289,24.125,0.000300807
290,24.2083,-9.5441e-05
291,24.2917,-5.8552e-05
292,24.375,-0.000100917
293,24.4583,-5.02525e-05
294,24.5417,0.000142321
295,24.625,0.000153519
296,24.7083,0.000117274
297,24.7917,-0.000181864
298,24.875,-5.56016e-05
299,24.9583,-2.01074e-05