Folder: torchdisorder/data-release/xrd_measurements/NaiLiI

Note: README.md
# torchdisorder

Torch-based modeling for disordered materials using PyTorch autograd to match target RDFs from XRD or neutron diffraction.

## Features

- Differentiable radial distribution function (RDF) loss
- Automatic config management with Hydra
- Experiment tracking with Weights & Biases
- Compatible with CUDA/GPU acceleration

## Usage

Run an experiment:

```bash
python -m torchdisorder.cli
```

Override parameters:

```bash
python -m torchdisorder.cli experiment.n_steps=10000 optimizer.lr=5e-4
```


```
amorphgen/
│
├── src/
│   └── amorphgen/
│       ├── __init__.py
│       ├── cli.py               # hydra entrypoint
│       ├── data/
│       │   ├── target_rdf.py    # loads & interpolates experimental RDF
│       │   └── utils.py
│       ├── model/
│       │   ├── generator.py     # positions -> (torch.tensor) coords
│       │   ├── rdf.py           # differentiable RDF calculator
│       │   └── loss.py
│       ├── engine/
│       │   ├── trainer.py       # main optimisation loop
│       │   └── callbacks.py     # W&B + other hooks
│       └── viz/
│           └── plot_rdf.py
│
├── configs/                     # hydra default config tree
│   ├── config.yaml
│   ├── experiment/
│   ├── optimizer/
│   ├── system/
│   └── wandb/
│
├── tests/
│
├── pyproject.toml               # poetry / setuptools
└── README.md
```

File: F_of_Q.csv
,Q,F,dF
0,1.01,10.4355,1e-7
3,1.04,10.1242,1e-7
6,1.07,1.30141,1e-7
9,1.1,-8.70173,0.0001
12,1.13,-12.1317,0.0001
15,1.16,-6.71168,0.0001
18,1.19,2.98125,0.0001
21,1.22,9.38647,0.0001
24,1.25,7.84716,0.0001
27,1.28,-0.0248025,0.0001
30,1.31,-7.89857,0.0001
33,1.34,-9.76568,0.0001
36,1.37,-4.49557,0.0001
39,1.4,3.52288,0.0001
42,1.43,7.97681,0.0001
45,1.46,5.55903,0.0001
48,1.49,-1.58676,0.0001
51,1.52,-7.71222,0.0001
54,1.55,-8.07236,0.0001
57,1.58,-2.66478,0.0001
60,1.61,3.81759,0.0001
63,1.64,5.78547,0.0001
66,1.67,1.34128,0.0001
69,1.7,-5.96999,0.0001
72,1.73,-9.747,0.0001
75,1.76,-5.81896,0.0001
78,1.79,4.034,0.0001
81,1.82,12.7439,0.0001
84,1.85,12.8398,0.0001
87,1.88,2.18475,0.0001
90,1.91,-13.6565,0.0001
93,1.94,-24.4311,0.0001
96,1.97,-21.8281,0.0001
99,2,-5.29675,0.0001
102,2.03,17.0017,0.0001
105,2.06,32.944,0.0001
108,2.09,33.8734,0.0001
111,2.12,19.8545,0.0001
114,2.15,-0.638085,0.0001
117,2.18,-16.2602,0.0001
120,2.21,-19.8014,0.0001
123,2.24,-12.0776,0.0001
126,2.27,-0.416616,0.0001
129,2.3,6.84789,0.0001
132,2.33,5.90194,0.0001
135,2.36,-0.692951,0.0001
138,2.39,-6.72042,0.0001
141,2.42,-7.28448,0.0001
144,2.45,-2.31587,0.0001
147,2.48,3.80284,0.0001
150,2.51,5.94896,0.0001
153,2.54,2.34965,0.0001
156,2.57,-4.06202,0.0001
159,2.6,-7.99839,0.0001
162,2.63,-6.04129,0.0001
165,2.66,0.502134,0.0001
168,2.69,6.34405,0.0001
171,2.72,6.12164,0.0001
174,2.75,-1.35317,0.0001
177,2.78,-11.6664,0.0001
180,2.81,-17.4123,0.0001
183,2.84,-13.1851,0.0001
186,2.87,0.456673,0.0001
189,2.9,16.8485,0.0001
192,2.93,27.1271,0.0001
195,2.96,25.669,0.0001
198,2.99,13.5119,0.0001
201,3.02,-2.43066,0.0001
204,3.05,-13.7488,0.0001
207,3.08,-15.5837,0.0001
210,3.11,-9.11724,0.0001
213,3.14,-0.111093,0.0001
216,3.17,5.2463,0.0001
219,3.2,4.27473,0.0001
222,3.23,-1.00866,0.0001
225,3.26,-5.93924,0.0001
228,3.29,-6.78344,0.0001
231,3.32,-3.26101,0.0001
234,3.35,1.62179,0.0001
237,3.38,4.06713,0.0001
240,3.41,2.358,0.0001
243,3.44,-1.9601,0.0001
246,3.47,-5.32348,0.0001
249,3.5,-4.8003,0.0001
252,3.53,-0.199257,0.0001
255,3.56,5.81604,0.0001
258,3.59,9.58466,0.0001
261,3.62,8.89299,0.0001
264,3.65,4.31215,0.0001
267,3.68,-1.38354,0.0001
270,3.71,-5.15796,0.0001
273,3.74,-5.58895,0.0001
276,3.77,-3.44855,0.0001
279,3.8,-0.782855,0.0001
282,3.83,0.66047,0.0001
285,3.86,0.475351,0.0001
288,3.89,-0.520779,0.0001
291,3.92,-1.25861,0.0001
294,3.95,-1.34053,0.0001
297,3.98,-1.18062,0.0001
300,4.01,-1.35582,0.0001
303,4.04,-1.83889,0.0001
306,4.07,-1.86128,0.0001
309,4.1,-0.588479,0.0001
312,4.13,1.94602,0.0001
315,4.16,4.49506,0.0001
318,4.19,5.27327,0.0001
321,4.22,3.26494,0.0001
324,4.25,-0.809658,0.0001
327,4.28,-4.70127,0.0001
330,4.31,-6.02504,0.0001
333,4.34,-3.93948,0.0001
336,4.37,0.104809,0.0001
339,4.4,3.19349,0.0001
342,4.43,2.90516,0.0001
345,4.46,-0.905882,0.0001
348,4.49,-5.77902,0.0001
351,4.52,-8.11179,0.0001
354,4.55,-5.53226,0.0001
357,4.58,1.3836,0.0001
360,4.61,9.24091,0.0001
363,4.64,13.7964,0.0001
366,4.67,12.5395,0.0001
369,4.7,6.2263,0.0001
372,4.73,-1.61983,0.0001
375,4.76,-6.9071,0.0001
378,4.79,-7.44366,0.0001
381,4.82,-4.10177,0.0001
384,4.85,0.0104364,0.0001
387,4.88,1.74791,0.0001
390,4.91,0.0130185,0.0001
393,4.94,-3.62434,0.0001
396,4.97,-6.11026,0.0001
399,5,-5.04323,0.0001
402,5.03,-0.328456,0.0001
405,5.06,5.711,0.0001
408,5.09,9.78385,0.0001
411,5.12,9.65731,0.0001
414,5.15,5.46242,0.0001
417,5.18,-0.490296,0.0001
420,5.21,-5.17168,0.0001
423,5.24,-6.58651,0.0001
426,5.27,-4.74162,0.0001
429,5.3,-1.34143,0.0001
432,5.33,1.44748,0.0001
435,5.36,2.29739,0.0001
438,5.39,1.29943,0.0001
441,5.42,-0.405987,0.0001
444,5.45,-1.55444,0.0001
447,5.48,-1.56389,0.0001
450,5.51,-0.739706,0.0001
453,5.54,0.133082,0.0001
456,5.57,0.421709,0.0001
459,5.6,0.0377745,0.0001
462,5.63,-0.626129,0.0001
465,5.66,-1.07843,0.0001
468,5.69,-1.09474,0.0001
471,5.72,-0.80551,0.0001
474,5.75,-0.492854,0.0001
477,5.78,-0.306927,0.0001
480,5.81,-0.147256,0.0001
483,5.84,0.203568,0.0001
486,5.87,0.819174,0.0001
489,5.9,1.4691,0.0001
492,5.93,1.70706,0.0001
495,5.96,1.16385,0.0001
498,5.99,-0.157193,0.0001
501,6.02,-1.79449,0.0001
504,6.05,-3.0255,0.0001
507,6.08,-3.23383,0.0001
510,6.11,-2.22805,0.0001
513,6.14,-0.333946,0.0001
516,6.17,1.77307,0.0001
519,6.2,3.38003,0.0001
522,6.23,4.01797,0.0001
525,6.26,3.5884,0.0001
528,6.29,2.31904,0.0001
531,6.32,0.621796,0.0001
534,6.35,-1.05385,0.0001
537,6.38,-2.31976,0.0001
540,6.41,-2.90304,0.0001
543,6.44,-2.68281,0.0001
546,6.47,-1.72285,0.0001
549,6.5,-0.282302,0.0001
552,6.53,1.22652,0.0001
555,6.56,2.34554,0.0001
558,6.59,2.71769,0.0001
561,6.62,2.2175,0.0001
564,6.65,1.00909,0.0001
567,6.68,-0.497875,0.0001
570,6.71,-1.78299,0.0001
573,6.74,-2.39567,0.0001
576,6.77,-2.11903,0.0001
579,6.8,-1.05742,0.0001
582,6.83,0.391043,0.0001
585,6.86,1.67781,0.0001
588,6.89,2.31722,0.0001
591,6.92,2.08589,0.0001
594,6.95,1.11691,0.0001
597,6.98,-0.163029,0.0001
600,7.01,-1.2316,0.0001
603,7.04,-1.709,0.0001
606,7.07,-1.51531,0.0001
609,7.1,-0.868505,0.0001
612,7.13,-0.135176,0.0001
615,7.16,0.370221,0.0001
618,7.19,0.518943,0.0001
621,7.22,0.369708,0.0001
624,7.25,0.0666798,0.0001
627,7.28,-0.272431,0.0001
630,7.31,-0.592491,0.0001
633,7.34,-0.849945,0.0001
636,7.37,-0.944686,0.0001
639,7.4,-0.725933,0.0001
642,7.43,-0.102004,0.0001
645,7.46,0.816287,0.0001
648,7.49,1.66688,0.0001
651,7.52,1.96939,0.0001
654,7.55,1.40147,0.0001
657,7.58,0.0559063,0.0001
660,7.61,-1.51034,0.0001
663,7.64,-2.51535,0.0001
666,7.67,-2.37432,0.0001
669,7.7,-1.06012,0.0001
672,7.73,0.832182,0.0001
675,7.76,2.38369,0.0001
678,7.79,2.85344,0.0001
681,7.82,2.08794,0.0001
684,7.85,0.589793,0.0001
687,7.88,-0.79523,0.0001
690,7.91,-1.37757,0.0001
693,7.94,-1.00249,0.0001
696,7.97,-0.0852133,0.0001
699,8,0.696921,0.0001
702,8.03,0.84134,0.0001
705,8.06,0.30547,0.0001
708,8.09,-0.522927,0.0001
711,8.12,-1.11963,0.0001
714,8.15,-1.1671,0.0001
717,8.18,-0.722372,0.0001
720,8.21,-0.124326,0.0001
723,8.24,0.263291,0.0001
726,8.27,0.279977,0.0001
729,8.3,0.020985,0.0001
732,8.33,-0.289578,0.0001
735,8.36,-0.481034,0.0001
738,8.39,-0.528662,0.0001
741,8.42,-0.502607,0.0001
744,8.45,-0.443576,0.0001
747,8.48,-0.292629,0.0001
750,8.51,0.0514578,0.0001
753,8.54,0.592319,0.0001
756,8.57,1.14327,0.0001
759,8.6,1.38873,0.0001
762,8.63,1.08767,0.0001
765,8.66,0.281968,0.0001
768,8.69,-0.65798,0.0001
771,8.72,-1.21789,0.0001
774,8.75,-1.05696,0.0001
777,8.78,-0.24907,0.0001
780,8.81,0.729569,0.0001
783,8.84,1.2812,0.0001
786,8.87,1.06439,0.0001
789,8.9,0.22009,0.0001
792,8.93,-0.711531,0.0001
795,8.96,-1.13717,0.0001
798,8.99,-0.794153,0.0001
799,9,-0.536797,0.0001

File: T_of_r.csv
,r,T
0,0.1109,-0.0385118
2,0.4711,-0.203052
4,1.0,-0.482706
6,1.547,-0.830562
8,2.101,-1.25221
10,2.608,-1.5319
12,2.794,-0.402629
14,2.998,1.17009
16,3.142,0.340008
18,3.179,0.0114671
20,3.241,-0.626622
22,3.296,-1.18112
24,3.522,-2.28995
26,3.835,-2.39898
28,3.925,-1.72543
30,4.037,-0.482293
32,4.136,1.13534
34,4.161,1.60299
36,4.372,1.79309
38,4.409,1.23732
40,4.608,-2.22431
42,4.824,-3.42761
44,5.197,-2.09265
46,5.44,-3.19538
48,5.701,-4.52825
50,6.049,-3.25504
52,6.268,-4.36861
54,6.496,-2.5358
56,6.521,-1.90317
58,6.596,-0.70688
60,6.752,1.16419
62,6.906,0.704977
64,7.085,-0.235631
66,7.378,2.66134
68,7.515,0.954188
70,7.59,-1.37411
72,7.689,-4.09039
74,7.848,-7.8755
76,8.223,-8.45351
78,8.439,-5.93378
80,8.72,-3.47915
82,8.931,-1.01188
84,9.354,-0.0924507
86,9.59,-0.248373
88,9.923,-2.76183
90,10.18,-5.60357
92,10.41,-8.58774
94,10.74,-6.37477
96,10.87,-3.50729
98,10.91,-2.63316
100,10.97,-1.0403
102,11.04,1.12698
104,11.12,3.48968
106,11.25,5.01572
108,11.38,2.91449
110,11.65,-11.7202
112,11.84,-16.2121
114,12.0,-14.7301
116,12.0,-15.9161
118,12.06,-13.0985
120,12.14,-10.8688
122,12.16,-9.68928
124,12.24,-6.81255
126,12.27,-6.30079
128,12.37,-0.792455
130,12.54,2.45618
132,12.84,1.06063
134,12.99,-2.65537
136,13.22,-6.07237
138,13.6,-2.71334
140,13.98,-2.89253
142,14.07,-5.75227
144,14.15,-8.74688
146,14.22,-11.7667
148,14.28,-13.7686
150,14.32,-15.4652
152,14.53,-18.0348
154,14.73,-14.6382
156,14.82,-11.7874
158,14.94,-8.31531
160,15.04,-3.18563
162,15.07,-1.24375
164,15.14,2.01518
166,15.22,5.77005
168,15.24,6.99803
170,15.38,9.54216
172,15.55,4.17316
174,15.69,-4.2894
176,15.79,-10.1497
178,16.05,-8.34028
180,16.14,-4.2139
182,16.24,1.45864
184,16.47,1.3783
186,16.51,0.160795
188,16.68,-11.7488
190,16.75,-17.0564
192,16.95,-21.705
194,17.13,-16.8131
196,17.19,-14.0135
198,17.23,-12.0299
200,17.25,-10.7696
202,17.29,-9.30396
204,17.37,-5.28315
206,17.6,0.647552
208,17.84,-2.37263
210,18.08,-7.54756
212,18.44,-6.01759
214,18.62,-6.42028
216,18.75,-10.8518
218,18.91,-15.5998
220,19.04,-10.7147
222,19.11,-5.45944
224,19.18,-0.874496
226,19.24,2.44292
228,19.4,5.89918
230,19.55,1.75593
232,19.62,-2.46499
234,19.69,-6.11023
236,19.84,-11.1649
238,20.08,-8.43172
240,20.42,-9.22857
242,20.47,-13.7878
244,20.51,-16.2169
246,20.58,-21.3351
248,20.65,-25.7354
250,20.78,-30.3723
252,20.96,-23.0219
254,21.06,-12.6294
256,21.16,-4.22164
258,21.35,5.52178
260,21.51,3.01823
262,21.73,-1.47203
264,22.04,6.6463
266,22.19,7.73208
268,22.22,3.09381
270,22.25,0.216698
272,22.32,-3.62864
274,22.37,-6.91446
276,22.47,-11.926
278,22.81,-17.3032
280,23.25,-18.4673
282,23.44,-12.1804
284,23.64,-5.64761
286,23.78,-8.25798
288,23.83,-10.7697
290,23.91,-16.4291
292,24.04,-21.2279
294,24.16,-13.596
296,24.24,-9.46242
298,24.31,-3.05422
300,24.51,5.06594
302,24.66,4.03842
304,24.95,-2.12035
306,25.1,-7.38708
308,25.18,-12.6823
310,25.28,-18.5842
312,25.45,-27.2375
314,25.6,-21.3404
316,25.64,-19.3575
318,25.74,-8.93862
320,25.8,-2.1293
322,25.88,1.68968
324,26.01,6.52998
326,26.21,0.0661801
328,26.3,-5.14941
330,26.46,-12.4469
332,26.54,-17.681
334,26.62,-23.3429
336,26.85,-29.9174
338,27.05,-22.3832
340,27.12,-17.1987
342,27.18,-14.6259
344,27.47,-6.32577
346,27.97,-6.2694
348,28.25,-2.12261
350,28.27,-0.244737
352,28.31,1.50113
354,28.37,9.01566
356,28.51,13.5542
358,28.65,10.5101
360,28.71,3.45893
362,28.82,-6.99219
364,28.92,-20.5486
366,29.06,-29.057
368,29.37,-36.4545
370,29.57,-33.5668
372,29.6,-29.96
374,29.68,-24.5595
376,29.74,-17.7252
378,29.8,-10.3485
380,29.88,-6.14568
382,29.94,-1.03354