Folder: torchdisorder/data-release/xrd_measurements/Si

Note: README.md
# torchdisorder

Torch-based modeling for disordered materials using PyTorch autograd to match target RDFs from XRD or neutron diffraction.

## Features

- Differentiable radial distribution function (RDF) loss
- Automatic config management with Hydra
- Experiment tracking with Weights & Biases
- Compatible with CUDA/GPU acceleration

## Usage

Run an experiment:

```bash
python -m torchdisorder.cli
```

Override parameters:

```bash
python -m torchdisorder.cli experiment.n_steps=10000 optimizer.lr=5e-4
```


```
amorphgen/
│
├── src/
│   └── amorphgen/
│       ├── __init__.py
│       ├── cli.py               # hydra entrypoint
│       ├── data/
│       │   ├── target_rdf.py    # loads & interpolates experimental RDF
│       │   └── utils.py
│       ├── model/
│       │   ├── generator.py     # positions -> (torch.tensor) coords
│       │   ├── rdf.py           # differentiable RDF calculator
│       │   └── loss.py
│       ├── engine/
│       │   ├── trainer.py       # main optimisation loop
│       │   └── callbacks.py     # W&B + other hooks
│       └── viz/
│           └── plot_rdf.py
│
├── configs/                     # hydra default config tree
│   ├── config.yaml
│   ├── experiment/
│   ├── optimizer/
│   ├── system/
│   └── wandb/
│
├── tests/
│
├── pyproject.toml               # poetry / setuptools
└── README.md
```

File: annealed-S-of-Q.csv
Q,F,dF
0.025,0.00325644,0.00972651
0.225,0.0112195,0.00972651
0.425,0.01595414,0.00972651
0.625,0.02632439,0.00972651
0.825,0.05608416,0.00972651
1.025,0.07522112,0.00972651
1.225,0.0745576,0.0101736
1.425,0.1399979,0.00972651
1.625,0.2931545,0.0147173
1.825,0.9582766,0.0109346
2.025,1.748515,0.010915
2.225,0.9925503,0.00972651
2.425,0.5797113,0.00972651
2.625,0.4879097,0.00972651
2.825,0.5566113,0.00972651
3.025,0.772631,0.0179933
3.225,1.167171,0.0115224
3.425,1.739298,0.00972651
3.625,2.075919,0.0100357
3.825,1.658815,0.00972651
4.025,0.8883343,0.00998889
4.225,0.5390563,0.00972651
4.425,0.4863352,0.00972651
4.625,0.5327507,0.00972651
4.825,0.6088746,0.00972651
5.025,0.7980136,0.00972651
5.225,1.011948,0.00972651
5.425,1.203609,0.00972651
5.625,1.309378,0.0191609
5.825,1.306982,0.00972651
6.025,1.168203,0.0197435
6.225,0.9815503,0.0181213
6.425,0.9882255,0.00972651
6.625,1.037634,0.00972651
6.825,1.082236,0.00972651
7.025,0.9829053,0.0102423
7.225,0.8391551,0.00972651
7.425,0.7571958,0.0164658
7.625,0.8033785,0.00972651
7.825,0.8783942,0.00972651
8.025,0.9650073,0.00972651
8.225,1.049713,0.00972651
8.425,1.103177,0.0192636
8.625,1.159159,0.0487962
8.825,1.217623,0.00972651
9.025,1.165486,0.00972651
9.225,0.9956699,0.0402821
9.425,0.9120384,0.00972651
9.625,0.8623621,0.0163988
9.825,0.8555346,0.0227321
10.025,0.8641889,0.0169451
10.225,0.8970124,0.00972651
10.425,0.9170045,0.00972651
10.625,0.9961077,0.01016
10.825,1.042802,0.00972651
11.025,1.082079,0.00972651
11.225,1.113357,0.00972651
11.425,1.09943,0.00972651
11.625,1.076256,0.00972651
11.825,1.067373,0.00972651
12.025,1.006688,0.00972651
12.225,0.9750946,0.00972651
12.425,0.9217817,0.00972651
12.625,0.9028155,0.00972651
12.825,0.9018525,0.00972651
13.025,0.9323474,0.00972651
13.225,0.970614,0.00972651
13.425,1.012541,0.00972651
13.625,1.046568,0.00972651
13.825,1.062564,0.00972651
14.025,1.079014,0.00972651
14.225,1.070221,0.00972651
14.425,1.046115,0.00972651
14.625,1.034926,0.00972651
14.825,0.9881497,0.00972651
15.025,0.9426518,0.00972651
15.225,0.9225901,0.00972651
15.425,0.9276476,0.00972651
15.625,0.9442859,0.00972651
15.825,0.975293,0.00972651
16.025,0.9940096,0.00972651
16.225,1.021703,0.00972651
16.425,1.046642,0.00972651
16.625,1.051557,0.00972651
16.825,1.048044,0.00972651
17.025,1.021515,0.00972651
17.225,1.004004,0.00972752
17.425,0.9993238,0.00972651
17.625,0.974772,0.00972651
17.825,0.9693692,0.00972651
18.025,0.9623754,0.00972651
18.225,0.949981,0.00972651
18.425,0.9691744,0.00972651
18.625,0.9934701,0.00972651
18.825,0.9997742,0.00972651
19.025,1.037769,0.00972651
19.225,1.039319,0.00972651
19.425,1.033566,0.00972651
19.625,1.019697,0.00972651
19.825,1.010915,0.00972651
20.025,0.9996181,0.00972651
20.225,0.9791819,0.00972651
20.425,0.975569,0.00972651
20.625,0.9719045,0.00972651
20.825,0.9772844,0.00972651
21.025,0.9787779,0.00972651
21.225,0.980063,0.00972651
21.425,1.004067,0.00972651
21.625,1.006379,0.00972651
21.825,1.022288,0.00972651
22.025,1.019647,0.00972651
22.225,1.015279,0.00972651
22.425,1.017594,0.00972651
22.625,1.000387,0.00972651
22.825,1.011161,0.0103836
23.025,0.9939948,0.00972651
23.225,0.9671857,0.00972651
23.425,0.9788198,0.00972651
23.625,0.9966522,0.00972651
23.825,0.990087,0.00972651
24.025,0.9921641,0.00972651
24.225,1.019912,0.00972651
24.425,1.013336,0.00972651
24.625,1.014503,0.00972651
24.825,1.005118,0.00972651
25.025,1.008514,0.00972651
25.225,0.9992859,0.00972651
25.425,0.9973749,0.00972651
25.625,0.9869961,0.00972651
25.825,0.9911994,0.00972651
26.025,0.9885163,0.00972651
26.225,0.9821419,0.00972651
26.425,0.986208,0.00972651
26.625,1.00129,0.00972651
26.825,1.002839,0.00972651
27.025,1.021517,0.00972651
27.225,1.011539,0.00972651
27.425,1.010826,0.00972651
27.625,1.002766,0.00972651
27.825,0.9955559,0.00972651
28.025,1.004006,0.00972651
28.225,1.00336,0.00972651
28.425,0.9959596,0.00972651
28.625,0.9825915,0.00972651
28.825,0.9938077,0.00972651
29.025,1.000694,0.00972651
29.225,0.9824846,0.00972651
29.425,1.004146,0.00972651
29.625,1.018379,0.00972651
29.825,1.011186,0.00972651
30.025,1.021898,0.00972651
30.225,1.007788,0.00972651
30.425,0.9947697,0.00972651
30.625,1.004566,0.00972651
30.825,0.9940427,0.00972651
31.025,0.9926561,0.00972651
31.225,0.9878723,0.00972651
31.425,0.9823188,0.00972651
31.625,0.9997721,0.00972651
31.825,0.9916669,0.00972651
32.025,0.9922673,0.00972651
32.225,1.021137,0.00972651
32.425,1.009026,0.00972651
32.625,0.9952501,0.00972651
32.825,1.005843,0.00972651
33.025,0.9969997,0.00972651
33.225,1.014044,0.00972651
33.425,1.001159,0.00972651
33.625,0.983599,0.00972651
33.825,1.013871,0.00972651
34.025,0.9837265,0.00972651
34.225,0.9919012,0.00972651
34.425,0.9979082,0.00972651
34.625,0.9882957,0.00972651
34.825,1.006981,0.00972651
35.025,0.9915977,0.00972651
35.225,1.013117,0.00972651
35.425,1.007661,0.00972651
35.625,1.009363,0.00972651
35.825,1.005922,0.00972651
36.025,1.008753,0.00972651
36.225,1.001311,0.00972651
36.425,1.005919,0.00972651
36.625,0.9942803,0.00972651
36.825,1.017309,0.00972651
37.025,0.9935113,0.00972651
37.225,0.9995202,0.00972651
37.425,0.9998709,0.00972651
37.625,0.9907614,0.00972651
37.825,1.000051,0.00972651
38.025,1.012323,0.00972651
38.225,1.008334,0.00972651
38.425,0.9850204,0.00972651
38.625,1.011307,0.00972651
38.825,0.9927994,0.00972651
39.025,0.9931237,0.00972651
39.225,1.002418,0.00972651
39.425,0.9933435,0.00972651
39.625,0.9894157,0.00972651
39.825,1.007931,0.00972651
40.025,0.9942691,0.00972651
40.225,0.9960912,0.00972651
40.425,1.00191,0.00972651
40.625,0.9973565,0.00972651
40.825,1.001342,0.00972651
41.025,0.9930676,0.00972651
41.225,0.9977382,0.00972651
41.425,1.000555,0.00972651
41.625,0.9975728,0.00972651
41.825,0.9962112,0.00972651
42.025,0.9966346,0.00972651
42.225,1.001405,0.00972651
42.425,0.9882054,0.00972651
42.625,1.005449,0.00972651
42.825,0.9989582,0.00972651
43.025,0.9877491,0.00972651
43.225,1.004565,0.00972651
43.425,1.007043,0.00972651
43.625,1.000653,0.00972651
43.825,0.9923252,0.00972651
44.025,1.002865,0.00972651
44.225,1.00312,0.00972651
44.425,0.9958231,0.00972651
44.625,1.012136,0.00972651
44.825,0.9979556,0.00972651
45.025,0.9893782,0.00972651
45.225,1.00954,0.00972651
45.425,1.009969,0.00972651
45.625,1.009894,0.00972651
45.825,0.9995441,0.00972651
46.025,1.002578,0.00972651
46.225,1.001152,0.00972651
46.425,1.0046,0.00972651
46.625,1.010022,0.00972651
46.825,0.9967467,0.00972651
47.025,0.9966362,0.00972651
47.225,0.9965507,0.00972651
47.425,1.010941,0.0107633
47.625,0.9968366,0.00972651
47.825,1.005059,0.00972651
48.025,1.009493,0.00972651
48.225,0.9968421,0.00972651
48.425,1.021127,0.00972651
48.625,1.00178,0.00972651
48.825,0.9857922,0.00972651
49.025,0.9977705,0.00972651
49.225,1.001414,0.00972651
49.425,0.9974155,0.00972651
49.625,1.000511,0.00972651
49.825,1.00023,0.00972651
50.025,0.9985035,0.00972651
50.225,1.010244,0.00972651
50.425,1.026863,0.00972651
50.625,1.000323,0.00972651
50.825,0.9886262,0.00972651
51.025,0.9885313,0.00972651
51.225,0.9903186,0.00972651
51.425,1.004299,0.00972651
51.625,1.003133,0.00972651
51.825,0.9862055,0.00972651
52.025,0.9979075,0.00972651
52.225,1.012915,0.00972651
52.425,0.9860879,0.00972651
52.625,0.9892379,0.0110728
52.825,0.9840837,0.00972651
53.025,0.9861028,0.00972651
53.225,1.011469,0.00972651
53.425,1.006837,0.00972651
53.625,1.007111,0.00972651
53.825,0.9956563,0.00972651
54.025,1.009984,0.00972651
54.225,0.9983161,0.00972651
54.425,0.9934045,0.00972651
54.625,0.9897511,0.00972651
54.825,1.006313,0.00972651
55.0,0.9751604,0.00972651

File: annealed-S-of-Q.dat
          0.025     0.00325644
          0.225      0.0112195
          0.425     0.01595414
          0.625     0.02632439
          0.825     0.05608416
          1.025     0.07522112
          1.225      0.0745576
          1.425      0.1399979
          1.625      0.2931545
          1.825      0.9582766
          2.025       1.748515
          2.225      0.9925503
          2.425      0.5797113
          2.625      0.4879097
          2.825      0.5566113
          3.025       0.772631
          3.225       1.167171
          3.425       1.739298
          3.625       2.075919
          3.825       1.658815
          4.025      0.8883343
          4.225      0.5390563
          4.425      0.4863352
          4.625      0.5327507
          4.825      0.6088746
          5.025      0.7980136
          5.225       1.011948
          5.425       1.203609
          5.625       1.309378
          5.825       1.306982
          6.025       1.168203
          6.225      0.9815503
          6.425      0.9882255
          6.625       1.037634
          6.825       1.082236
          7.025      0.9829053
          7.225      0.8391551
          7.425      0.7571958
          7.625      0.8033785
          7.825      0.8783942
          8.025      0.9650073
          8.225       1.049713
          8.425       1.103177
          8.625       1.159159
          8.825       1.217623
          9.025       1.165486
          9.225      0.9956699
          9.425      0.9120384
          9.625      0.8623621
          9.825      0.8555346
         10.025      0.8641889
         10.225      0.8970124
         10.425      0.9170045
         10.625      0.9961077
         10.825       1.042802
         11.025       1.082079
         11.225       1.113357
         11.425        1.09943
         11.625       1.076256
         11.825       1.067373
         12.025       1.006688
         12.225      0.9750946
         12.425      0.9217817
         12.625      0.9028155
         12.825      0.9018525
         13.025      0.9323474
         13.225       0.970614
         13.425       1.012541
         13.625       1.046568
         13.825       1.062564
         14.025       1.079014
         14.225       1.070221
         14.425       1.046115
         14.625       1.034926
         14.825      0.9881497
         15.025      0.9426518
         15.225      0.9225901
         15.425      0.9276476
         15.625      0.9442859
         15.825       0.975293
         16.025      0.9940096
         16.225       1.021703
         16.425       1.046642
         16.625       1.051557
         16.825       1.048044
         17.025       1.021515
         17.225       1.004004
         17.425      0.9993238
         17.625       0.974772
         17.825      0.9693692
         18.025      0.9623754
         18.225       0.949981
         18.425      0.9691744
         18.625      0.9934701
         18.825      0.9997742
         19.025       1.037769
         19.225       1.039319
         19.425       1.033566
         19.625       1.019697
         19.825       1.010915
         20.025      0.9996181
         20.225      0.9791819
         20.425       0.975569
         20.625      0.9719045
         20.825      0.9772844
         21.025      0.9787779
         21.225       0.980063
         21.425       1.004067
         21.625       1.006379
         21.825       1.022288
         22.025       1.019647
         22.225       1.015279
         22.425       1.017594
         22.625       1.000387
         22.825       1.011161
         23.025      0.9939948
         23.225      0.9671857
         23.425      0.9788198
         23.625      0.9966522
         23.825       0.990087
         24.025      0.9921641
         24.225       1.019912
         24.425       1.013336
         24.625       1.014503
         24.825       1.005118
         25.025       1.008514
         25.225      0.9992859
         25.425      0.9973749
         25.625      0.9869961
         25.825      0.9911994
         26.025      0.9885163
         26.225      0.9821419
         26.425       0.986208
         26.625        1.00129
         26.825       1.002839
         27.025       1.021517
         27.225       1.011539
         27.425       1.010826
         27.625       1.002766
         27.825      0.9955559
         28.025       1.004006
         28.225        1.00336
         28.425      0.9959596
         28.625      0.9825915
         28.825      0.9938077
         29.025       1.000694
         29.225      0.9824846
         29.425       1.004146
         29.625       1.018379
         29.825       1.011186
         30.025       1.021898
         30.225       1.007788
         30.425      0.9947697
         30.625       1.004566
         30.825      0.9940427
         31.025      0.9926561
         31.225      0.9878723
         31.425      0.9823188
         31.625      0.9997721
         31.825      0.9916669
         32.025      0.9922673
         32.225       1.021137
         32.425       1.009026
         32.625      0.9952501
         32.825       1.005843
         33.025      0.9969997
         33.225       1.014044
         33.425       1.001159
         33.625       0.983599
         33.825       1.013871
         34.025      0.9837265
         34.225      0.9919012
         34.425      0.9979082
         34.625      0.9882957
         34.825       1.006981
         35.025      0.9915977
         35.225       1.013117
         35.425       1.007661
         35.625       1.009363
         35.825       1.005922
         36.025       1.008753
         36.225       1.001311
         36.425       1.005919
         36.625      0.9942803
         36.825       1.017309
         37.025      0.9935113
         37.225      0.9995202
         37.425      0.9998709
         37.625      0.9907614
         37.825       1.000051
         38.025       1.012323
         38.225       1.008334
         38.425      0.9850204
         38.625       1.011307
         38.825      0.9927994
         39.025      0.9931237
         39.225       1.002418
         39.425      0.9933435
         39.625      0.9894157
         39.825       1.007931
         40.025      0.9942691
         40.225      0.9960912
         40.425        1.00191
         40.625      0.9973565
         40.825       1.001342
         41.025      0.9930676
         41.225      0.9977382
         41.425       1.000555
         41.625      0.9975728
         41.825      0.9962112
         42.025      0.9966346
         42.225       1.001405
         42.425      0.9882054
         42.625       1.005449
         42.825      0.9989582
         43.025      0.9877491
         43.225       1.004565
         43.425       1.007043
         43.625       1.000653
         43.825      0.9923252
         44.025       1.002865
         44.225        1.00312
         44.425      0.9958231
         44.625       1.012136
         44.825      0.9979556
         45.025      0.9893782
         45.225        1.00954
         45.425       1.009969
         45.625       1.009894
         45.825      0.9995441
         46.025       1.002578
         46.225       1.001152
         46.425         1.0046
         46.625       1.010022
         46.825      0.9967467
         47.025      0.9966362
         47.225      0.9965507
         47.425       1.010941
         47.625      0.9968366
         47.825       1.005059
         48.025       1.009493
         48.225      0.9968421
         48.425       1.021127
         48.625        1.00178
         48.825      0.9857922
         49.025      0.9977705
         49.225       1.001414
         49.425      0.9974155
         49.625       1.000511
         49.825        1.00023
         50.025      0.9985035
         50.225       1.010244
         50.425       1.026863
         50.625       1.000323
         50.825      0.9886262
         51.025      0.9885313
         51.225      0.9903186
         51.425       1.004299
         51.625       1.003133
         51.825      0.9862055
         52.025      0.9979075
         52.225       1.012915
         52.425      0.9860879
         52.625      0.9892379
         52.825      0.9840837
         53.025      0.9861028
         53.225       1.011469
         53.425       1.006837
         53.625       1.007111
         53.825      0.9956563
         54.025       1.009984
         54.225      0.9983161
         54.425      0.9934045
         54.625      0.9897511
         54.825       1.006313
             55      0.9751604